,gyro_x,gyro_y,gyro_z,acce_x,acce_y,acce_z
0,-4.34,12.87,0.29,-0.03,1.07,"31.92[0m
"
1,8.76,2.02,12.98,0.32,-0.03,1.07
2,9.79,1.86,12.69,0.32,-0.03,1.06
3,10.05,2.81,11.77,0.33,-0.04,1.03
4,31.74,13.56,6.53,0.35,-0.20,0.92
5,11.56,10.63,11.10,0.27,0.03,1.01
6,8.90,9.82,12.78,0.30,-0.01,1.04
7,9.31,8.14,14.06,0.29,0.00,1.08
8,8.49,4.14,14.32,0.30,-0.01,1.07
9,8.67,4.92,13.57,0.31,-0.01,1.04
10,7.92,7.05,13.47,0.30,0.00,1.03
11,7.50,7.83,13.83,0.28,-0.00,1.02
12,7.45,8.75,14.90,0.26,-0.00,1.02
13,7.36,9.54,16.09,0.25,0.01,1.02
14,7.22,10.15,16.53,0.26,0.02,1.02
15,7.05,11.77,16.85,0.26,0.02,1.00
16,7.54,12.84,17.18,0.25,0.02,1.00
17,15.62,14.69,15.83,0.24,-0.02,0.97
18,7.77,16.05,17.01,0.23,0.06,0.96
19,5.88,9.85,18.61,0.19,0.05,0.98
20,7.01,9.21,19.04,0.19,0.03,0.98
21,7.08,10.21,19.76,0.20,0.03,0.97
22,6.92,11.18,20.23,0.19,0.03,0.96
23,6.66,11.21,20.60,0.18,0.03,0.95
24,5.97,10.95,21.44,0.17,0.03,0.95
25,5.45,9.98,22.32,0.15,0.02,0.94
26,5.18,8.98,23.45,0.14,0.02,0.93
27,5.27,8.66,24.58,0.13,0.01,0.95
28,15.50,8.87,22.82,0.13,-0.04,0.94
29,10.69,11.47,23.27,0.14,0.03,0.93
30,3.45,4.06,25.22,0.11,0.02,0.96
31,2.44,3.34,26.17,0.11,0.00,0.98
32,1.48,1.33,27.07,0.10,0.00,0.97
33,0.50,-1.45,27.63,0.11,-0.01,0.95
34,-0.92,-2.52,28.34,0.12,-0.01,0.94
35,-1.95,-3.94,29.42,0.11,-0.01,0.94
36,-2.98,-5.71,31.10,0.11,-0.01,0.94
37,12.21,-2.37,28.52,0.13,-0.13,0.91
38,-1.76,-4.02,33.45,0.14,0.05,0.94
39,-7.45,-5.62,35.66,0.16,0.01,0.99
40,-6.70,-4.87,36.32,0.19,-0.00,1.01
41,-6.89,-2.34,36.63,0.22,-0.01,0.99
42,-6.90,-1.33,36.40,0.23,-0.01,0.98
43,-6.63,-1.11,35.66,0.24,-0.01,0.97
44,-6.26,-2.53,35.65,0.23,0.00,0.98
45,-5.69,-3.86,36.09,0.25,-0.01,0.99
46,-5.60,-2.47,35.48,0.26,-0.02,1.00
47,-5.31,-3.25,34.89,0.27,-0.01,1.00
48,-4.18,-2.82,33.79,0.28,-0.02,0.97
49,-2.73,-1.98,32.82,0.28,-0.03,0.97
50,-3.05,-0.58,32.56,0.28,-0.03,0.96
51,-5.91,-1.37,33.19,0.27,-0.03,0.99
52,-5.56,-1.44,34.02,0.27,-0.04,0.99
53,-6.08,0.95,34.85,0.27,-0.04,0.98
54,-6.85,2.67,35.56,0.27,-0.04,0.98
55,-7.63,5.21,36.50,0.28,-0.04,0.97
56,-8.26,6.55,37.19,0.27,-0.04,0.97
57,-8.40,7.15,38.06,0.27,-0.05,0.97
58,-8.55,8.67,38.29,0.27,-0.04,0.97
59,-8.60,8.84,38.11,0.28,-0.04,0.97
60,-8.72,8.00,37.82,0.27,-0.04,0.96
61,-9.04,7.25,37.19,0.27,-0.05,0.95
62,-9.63,6.41,36.82,0.26,-0.04,0.96
63,-10.31,4.89,36.21,0.26,-0.05,0.96
64,-11.31,3.74,35.31,0.28,-0.05,0.96
65,-11.60,2.23,33.79,0.28,-0.06,0.99
66,-12.26,1.48,31.94,0.29,-0.06,0.98
67,-11.94,1.66,30.61,0.30,-0.07,0.99
68,-11.21,0.18,29.37,0.29,-0.08,1.01
69,-10.64,-1.73,28.53,0.29,-0.09,1.03
70,-9.19,0.05,27.98,0.30,-0.09,1.03
71,0.67,6.20,26.00,0.31,-0.16,1.01
72,-10.50,8.76,28.81,0.29,-0.04,1.04
73,-11.91,7.16,31.10,0.28,-0.10,1.06
74,-12.47,14.00,32.56,0.30,-0.10,1.06
75,-11.89,18.08,34.15,0.30,-0.11,1.05
76,-12.08,21.25,34.92,0.29,-0.10,1.03
77,-12.06,20.78,35.16,0.27,-0.09,1.03
78,-11.59,20.09,35.04,0.28,-0.09,1.02
79,-10.87,18.26,34.18,0.28,-0.10,1.02
80,-10.89,16.56,32.92,0.28,-0.09,1.00
81,-11.98,16.08,31.76,0.28,-0.09,0.99
82,-12.79,14.46,30.89,0.26,-0.09,0.98
83,-13.69,12.66,30.11,0.25,-0.09,0.99
84,-14.14,12.66,29.82,0.25,-0.09,0.99
85,-14.43,11.10,29.56,0.23,-0.10,0.99
86,-14.38,10.35,28.81,0.25,-0.11,1.00
87,-14.61,11.57,27.59,0.25,-0.11,1.01
88,-14.44,12.08,25.88,0.24,-0.12,1.02
89,-14.37,11.24,24.69,0.24,-0.13,1.03
90,-13.83,9.71,24.32,0.22,-0.14,1.04
91,-13.22,6.64,24.31,0.20,-0.14,1.04
92,-13.04,5.69,24.47,0.21,-0.15,1.04
93,-13.15,5.16,24.55,0.21,-0.15,1.03
94,-13.47,3.62,25.24,0.20,-0.15,1.02
95,-13.16,4.50,25.98,0.20,-0.14,1.02
96,-13.77,5.44,26.55,0.20,-0.13,1.01
97,-14.60,6.32,27.08,0.20,-0.13,0.99
98,-15.40,7.24,27.05,0.20,-0.13,0.97
99,-16.31,8.14,27.28,0.20,-0.12,0.95
100,-18.14,8.26,28.00,0.19,-0.12,0.94
101,-20.02,9.25,28.61,0.18,-0.13,0.93
102,-21.86,10.79,29.11,0.19,-0.14,0.93
103,-24.06,10.29,29.98,0.20,-0.14,0.94
104,-25.04,10.81,30.47,0.20,-0.15,0.95
105,-25.02,11.04,30.61,0.21,-0.16,0.98
106,-24.52,10.40,30.78,0.22,-0.16,0.98
107,-24.31,12.03,30.67,0.22,-0.18,0.98
108,-24.32,13.42,30.50,0.22,-0.17,0.97
109,-23.65,14.12,30.11,0.21,-0.18,0.95
110,-23.86,14.87,29.19,0.21,-0.17,0.95
111,-24.18,14.76,28.47,0.21,-0.18,0.94
112,-25.31,14.50,26.89,0.22,-0.18,0.94
113,-26.52,11.92,25.18,0.21,-0.19,0.93
114,-27.47,8.38,23.83,0.21,-0.19,0.96
115,-28.40,6.75,22.96,0.20,-0.20,0.96
116,-28.90,4.35,22.46,0.20,-0.21,0.97
117,-29.57,2.05,22.67,0.19,-0.21,0.98
118,-29.69,1.56,22.79,0.21,-0.22,0.98
119,-29.34,2.52,23.15,0.21,-0.22,0.99
120,-28.55,3.31,23.34,0.22,-0.23,1.00
121,-27.68,4.92,23.13,0.23,-0.23,0.99
122,-27.08,8.18,23.01,0.25,-0.26,0.98
123,-27.86,8.90,21.92,0.22,-0.22,0.96
124,-27.62,10.72,21.85,0.25,-0.23,0.95
125,-28.63,13.44,21.28,0.25,-0.22,0.94
126,-29.89,15.91,20.20,0.25,-0.23,0.94
127,-31.65,16.55,18.95,0.25,-0.24,0.92
128,-33.69,16.00,18.15,0.24,-0.25,0.94
129,-35.15,15.05,17.65,0.23,-0.25,0.95
130,-35.44,13.92,17.59,0.23,-0.27,0.97
131,-34.40,11.48,17.28,0.22,-0.27,1.01
132,-27.60,11.92,15.57,0.25,-0.30,1.01
133,-28.34,15.39,14.00,0.27,-0.23,1.01
134,-27.42,17.94,11.33,0.22,-0.36,0.99
135,-29.13,8.31,13.91,0.23,-0.31,0.99
136,-30.85,19.40,12.89,0.27,-0.30,0.98
137,-30.14,21.77,11.95,0.26,-0.30,1.00
138,-30.32,21.76,10.37,0.25,-0.29,1.00
139,-29.92,23.02,9.59,0.24,-0.30,0.97
140,-30.32,23.51,9.19,0.23,-0.30,0.98
141,-30.89,24.49,9.22,0.21,-0.30,0.99
142,-31.71,25.62,9.27,0.21,-0.31,0.97
143,-32.82,27.04,8.56,0.22,-0.30,0.99
144,-33.18,28.40,8.18,0.21,-0.31,0.99
145,-32.52,26.60,7.33,0.20,-0.32,1.00
146,-30.72,24.75,6.05,0.21,-0.32,0.98
147,-25.08,28.46,2.06,0.23,-0.38,1.00
148,-30.03,33.36,1.45,0.22,-0.31,1.00
149,-30.87,30.43,0.61,0.17,-0.36,1.04
150,-30.90,22.02,0.17,0.17,-0.36,1.06
151,-31.40,28.03,0.15,0.19,-0.37,1.04
152,-32.47,37.24,-0.41,0.19,-0.37,1.04
153,-31.79,40.09,-0.85,0.18,-0.38,1.05
154,-30.58,38.87,-1.92,0.17,-0.38,1.08
155,-28.69,40.03,-2.21,0.16,-0.39,1.07
156,-28.32,43.15,-2.24,0.16,-0.40,1.06
157,-28.92,46.55,-1.53,0.14,-0.39,1.05
158,-29.34,49.44,-0.53,0.13,-0.39,1.05
159,-28.44,50.37,0.37,0.11,-0.40,1.05
160,-27.45,51.66,0.43,0.11,-0.39,1.04
161,-26.50,52.85,0.08,0.11,-0.40,1.03
162,-25.40,54.85,-0.46,0.10,-0.40,1.01
163,-25.89,54.12,-1.77,0.09,-0.40,1.00
164,-26.06,51.77,-3.54,0.08,-0.40,0.99
165,-26.15,50.29,-4.49,0.06,-0.40,1.00
166,-26.12,46.47,-5.04,0.03,-0.40,1.01
167,-26.06,42.17,-5.36,0.03,-0.41,1.01
168,-26.43,37.82,-6.31,0.04,-0.41,1.02
169,-25.88,31.92,-8.12,0.05,-0.42,1.04
170,-24.29,27.50,-9.66,0.06,-0.43,1.05
171,-22.56,24.52,-10.96,0.06,-0.43,1.06
172,-21.10,22.37,-12.11,0.06,-0.43,1.05
173,-19.77,20.23,-13.30,0.06,-0.44,1.03
174,-19.44,19.42,-14.32,0.07,-0.43,1.02
175,-19.48,20.89,-15.94,0.08,-0.43,1.00
176,-19.66,21.51,-17.04,0.06,-0.43,0.99
177,-20.85,23.65,-18.20,0.08,-0.42,0.97
178,-19.65,21.30,-19.79,0.07,-0.42,0.97
179,-18.50,17.48,-21.18,0.06,-0.42,0.96
180,-18.81,14.44,-22.56,0.06,-0.42,0.96
181,-18.72,12.56,-23.77,0.04,-0.42,0.95
182,-19.22,9.28,-24.60,0.05,-0.43,0.94
183,-19.82,4.70,-25.36,0.06,-0.44,0.93
184,-20.82,0.06,-26.03,0.06,-0.44,0.95
185,-21.30,-5.39,-27.02,0.08,-0.46,0.95
186,-22.20,-10.26,-27.24,0.08,-0.46,0.94
187,-22.93,-15.01,-26.37,0.07,-0.46,0.96
188,-22.81,-19.30,-24.32,0.07,-0.47,0.95
189,-24.14,-22.89,-22.67,0.11,-0.48,0.96
190,-24.73,-19.08,-22.72,0.18,-0.47,0.97
191,-23.94,-15.34,-23.60,0.20,-0.49,1.00
192,-23.27,-11.13,-24.08,0.21,-0.49,1.04
193,-21.42,-1.34,-23.69,0.21,-0.48,1.03
194,-18.75,10.84,-22.43,0.18,-0.50,1.05
195,-17.10,22.67,-19.95,0.15,-0.50,1.04
196,-16.79,35.02,-15.63,0.10,-0.50,1.01
197,-17.18,45.01,-10.34,0.07,-0.49,0.98
198,-17.44,54.17,-6.41,0.06,-0.49,0.96
199,-18.15,61.77,-3.50,0.08,-0.48,0.96
200,-18.44,66.08,-3.19,0.08,-0.47,0.93
201,-19.21,65.57,-5.18,0.10,-0.47,0.93
202,-18.81,63.22,-8.58,0.09,-0.47,0.93
203,-19.22,59.18,-12.32,0.08,-0.47,0.92
204,-20.61,53.68,-16.24,0.06,-0.48,0.91
205,-21.57,44.78,-20.56,0.04,-0.48,0.92
206,-23.16,36.78,-25.08,0.04,-0.47,0.94
207,-24.56,29.07,-29.47,0.02,-0.47,0.93
208,-25.56,20.76,-33.15,-0.01,-0.48,0.96
209,-26.55,14.00,-36.02,-0.01,-0.48,0.97
210,-27.60,11.22,-36.72,-0.03,-0.48,0.99
211,-27.79,8.76,-35.98,-0.06,-0.49,1.00
212,-27.77,6.27,-34.20,-0.06,-0.51,1.05
213,-27.21,6.64,-32.46,-0.06,-0.52,1.06
214,-25.71,8.79,-29.68,-0.07,-0.52,1.08
215,-23.56,10.29,-27.33,-0.06,-0.54,1.10
216,-23.24,11.92,-25.37,-0.05,-0.53,1.10
217,-23.44,16.43,-26.31,-0.01,-0.54,1.13
218,-22.03,21.37,-26.75,0.00,-0.53,1.16
219,-19.02,47.73,-27.83,0.03,-0.53,1.07
220,-17.16,54.56,-29.36,-0.02,-0.53,1.09
221,-14.11,44.20,-29.91,-0.03,-0.52,1.13
222,-10.64,23.68,-31.53,-0.04,-0.53,1.14
223,-11.22,10.92,-32.29,-0.02,-0.52,1.09
224,-14.82,18.21,-34.60,0.04,-0.52,1.06
225,-16.05,27.01,-37.34,0.03,-0.53,1.08
226,-13.04,29.31,-39.18,-0.01,-0.53,1.10
227,-10.43,37.05,-39.83,-0.03,-0.54,1.11
228,-6.52,39.13,-39.63,-0.04,-0.54,1.15
229,-4.44,28.76,-39.36,-0.06,-0.55,1.17
230,-3.86,19.71,-38.95,-0.06,-0.55,1.16
231,-3.56,23.98,-38.73,-0.04,-0.56,1.13
232,-1.13,28.31,-39.40,-0.05,-0.57,1.13
233,1.59,26.56,-38.43,-0.07,-0.56,1.14
234,2.61,25.74,-37.51,-0.07,-0.55,1.11
235,2.60,24.14,-37.89,-0.06,-0.54,1.10
236,2.14,20.08,-37.65,-0.08,-0.53,1.08
237,1.48,16.40,-37.33,-0.07,-0.53,1.08
238,0.89,17.13,-37.16,-0.06,-0.52,1.06
239,1.15,20.67,-37.73,-0.05,-0.52,1.05
240,2.20,21.11,-38.84,-0.03,-0.51,1.05
241,3.37,18.81,-39.80,-0.03,-0.51,1.04
242,3.21,16.20,-41.24,-0.02,-0.50,1.03
243,3.07,13.95,-42.02,-0.02,-0.50,1.01
244,3.04,10.17,-43.21,-0.01,-0.50,1.01
245,3.22,5.91,-44.58,0.01,-0.50,1.00
246,3.54,4.85,-45.66,0.02,-0.51,1.00
247,4.26,3.91,-46.50,0.03,-0.51,1.00
248,5.79,2.21,-47.31,0.04,-0.50,0.98
249,6.64,-5.02,-48.24,0.05,-0.50,0.98
250,5.83,-5.07,-49.59,0.07,-0.50,1.01
251,3.79,12.50,-49.98,0.11,-0.51,0.97
252,5.34,20.67,-51.02,0.06,-0.52,1.00
253,8.24,13.57,-51.24,0.05,-0.52,1.02
254,8.17,20.63,-51.66,0.08,-0.51,1.01
255,8.92,26.89,-52.64,0.07,-0.51,0.99
256,9.21,22.76,-53.80,0.03,-0.52,0.99
257,9.13,16.87,-54.24,0.01,-0.52,0.98
258,7.22,16.52,-53.31,0.00,-0.51,0.96
259,4.90,19.37,-52.08,0.01,-0.51,0.94
260,3.42,19.45,-51.28,0.02,-0.50,0.95
261,2.87,18.46,-51.56,0.04,-0.49,0.94
262,3.18,17.77,-52.20,0.05,-0.49,0.96
263,3.33,17.73,-53.04,0.06,-0.49,0.95
264,2.79,18.55,-53.54,0.06,-0.49,0.94
265,2.27,18.72,-53.30,0.06,-0.49,0.92
266,1.11,20.32,-52.66,0.06,-0.49,0.91
267,0.24,23.21,-51.83,0.06,-0.50,0.91
268,-0.15,24.11,-50.96,0.05,-0.51,0.95
269,0.02,24.58,-50.60,0.05,-0.52,0.96
270,1.27,25.83,-50.29,0.04,-0.52,0.98
271,3.08,26.73,-50.87,0.05,-0.52,0.98
272,5.02,28.73,-52.38,0.04,-0.51,0.98
273,6.08,30.11,-53.36,0.03,-0.51,0.98
274,6.63,29.94,-54.24,0.03,-0.50,0.95
275,5.51,29.54,-55.37,0.03,-0.50,0.93
276,3.69,29.37,-56.43,0.04,-0.49,0.92
277,2.24,27.74,-57.76,0.04,-0.49,0.91
278,1.27,24.34,-58.69,0.04,-0.48,0.92
279,0.72,21.56,-60.14,0.06,-0.49,0.93
280,0.81,21.18,-61.74,0.08,-0.50,0.94
281,2.14,21.34,-63.16,0.06,-0.52,0.98
282,4.03,21.85,-63.74,0.05,-0.53,1.01
283,6.49,22.73,-63.18,0.02,-0.54,1.02
284,9.47,26.81,-61.10,0.00,-0.55,1.05
285,12.38,32.82,-58.64,-0.01,-0.55,1.07
286,15.51,38.18,-55.77,-0.03,-0.54,1.08
287,18.31,42.34,-53.36,-0.03,-0.54,1.08
288,20.47,47.74,-50.95,-0.03,-0.53,1.08
289,22.34,50.44,-49.80,-0.03,-0.50,1.05
290,24.52,49.88,-50.23,-0.03,-0.50,1.05
291,24.20,48.26,-50.76,-0.04,-0.50,1.02
292,22.56,42.11,-51.63,-0.06,-0.50,0.99
293,20.37,32.72,-52.96,-0.06,-0.49,0.98
294,17.53,25.19,-54.92,-0.04,-0.49,0.99
295,15.47,17.33,-57.56,-0.03,-0.50,0.99
296,13.74,7.08,-60.58,-0.02,-0.51,1.01
297,12.14,-0.82,-62.67,-0.02,-0.52,1.04
298,11.54,-5.33,-63.07,-0.03,-0.53,1.06
299,11.56,-7.53,-61.50,-0.04,-0.54,1.09
300,13.16,-6.75,-59.97,-0.01,-0.54,1.10
301,14.43,-1.80,-58.78,0.03,-0.55,1.11
302,15.92,3.18,-57.79,0.05,-0.55,1.12
303,16.70,9.30,-56.84,0.05,-0.55,1.12
304,16.99,14.50,-55.66,0.05,-0.55,1.11
305,19.33,14.70,-54.53,0.04,-0.53,1.15
306,22.31,17.44,-54.69,0.05,-0.53,1.12
307,24.73,22.31,-55.08,0.05,-0.53,1.10
308,26.82,24.29,-55.33,0.04,-0.52,1.09
309,28.64,25.01,-55.30,0.01,-0.52,1.09
310,29.57,25.57,-54.29,-0.03,-0.52,1.07
311,30.63,24.44,-53.04,-0.03,-0.52,1.09
312,31.59,22.81,-52.76,-0.04,-0.51,1.08
313,31.92,21.18,-52.18,-0.05,-0.50,1.07
314,31.98,18.92,-51.25,-0.07,-0.50,1.08
315,31.76,18.47,-50.53,-0.07,-0.49,1.08
316,31.97,15.54,-50.02,-0.09,-0.49,1.09
317,31.80,12.67,-49.34,-0.10,-0.48,1.08
318,33.60,10.56,-48.37,-0.10,-0.47,1.13
319,34.26,8.82,-47.97,-0.08,-0.46,1.10
320,35.77,9.07,-48.24,-0.07,-0.46,1.09
321,35.86,8.87,-48.58,-0.07,-0.43,1.10
322,35.73,10.87,-48.70,-0.05,-0.43,1.06
323,35.62,11.27,-48.76,-0.04,-0.43,1.06
324,34.60,11.07,-49.18,-0.05,-0.43,1.06
325,34.21,9.91,-48.26,-0.07,-0.44,1.07
326,34.75,6.72,-47.05,-0.08,-0.43,1.08
327,35.62,3.05,-46.31,-0.08,-0.43,1.08
328,36.69,0.84,-46.14,-0.09,-0.42,1.11
329,37.42,1.02,-45.16,-0.09,-0.42,1.10
330,38.85,1.08,-43.76,-0.12,-0.41,1.12
331,39.04,-0.43,-41.47,-0.12,-0.40,1.10
332,40.61,-0.92,-40.11,-0.11,-0.40,1.11
333,41.02,-4.21,-39.45,-0.12,-0.39,1.13
334,43.02,-5.97,-39.44,-0.10,-0.38,1.13
335,43.54,-7.24,-39.31,-0.11,-0.37,1.10
336,42.63,-8.66,-38.49,-0.12,-0.36,1.09
337,42.26,-7.74,-37.51,-0.12,-0.35,1.10
338,41.77,-8.95,-36.35,-0.13,-0.34,1.06
339,42.11,-9.01,-34.46,-0.13,-0.34,1.07
340,41.53,-10.75,-32.87,-0.13,-0.35,1.09
341,41.45,-11.71,-31.92,-0.10,-0.34,1.09
342,41.82,-15.40,-30.93,-0.10,-0.35,1.13
343,42.26,-16.06,-30.14,-0.08,-0.35,1.12
344,43.66,-20.34,-29.56,-0.08,-0.34,1.14
345,45.97,-16.32,-29.89,-0.05,-0.33,1.13
346,47.65,-13.40,-30.20,-0.06,-0.33,1.14
347,49.04,-12.08,-30.17,-0.06,-0.32,1.15
348,50.40,-13.07,-29.27,-0.07,-0.31,1.12
349,51.07,-14.02,-28.31,-0.09,-0.30,1.12
350,52.55,-16.44,-27.08,-0.10,-0.28,1.12
351,52.87,-18.23,-26.11,-0.08,-0.28,1.11
352,52.84,-19.13,-25.21,-0.08,-0.27,1.10
353,53.36,-18.76,-25.47,-0.07,-0.26,1.10
354,53.57,-20.18,-26.12,-0.06,-0.26,1.09
355,53.53,-22.11,-26.29,-0.07,-0.26,1.09
356,53.89,-24.98,-25.85,-0.08,-0.25,1.10
357,54.12,-27.10,-24.70,-0.09,-0.24,1.10
358,54.41,-28.32,-23.50,-0.08,-0.24,1.10
359,54.21,-26.79,-22.69,-0.06,-0.23,1.09
360,54.08,-26.03,-22.23,-0.05,-0.22,1.09
361,54.56,-25.31,-22.00,-0.06,-0.22,1.10
362,54.93,-23.89,-21.04,-0.06,-0.20,1.08
363,55.68,-23.73,-17.95,-0.09,-0.19,1.09
364,56.17,-25.02,-13.45,-0.12,-0.18,1.05
365,56.61,-24.20,-9.76,-0.08,-0.17,1.04
366,55.73,-23.88,-8.46,-0.05,-0.16,1.04
367,54.73,-24.02,-8.34,-0.01,-0.15,1.03
368,54.27,-23.16,-8.49,0.01,-0.16,1.02
369,53.42,-24.81,-8.27,0.00,-0.14,1.03
370,53.48,-23.85,-6.73,0.01,-0.14,1.02
371,53.11,-23.02,-4.53,0.00,-0.13,1.03
372,53.13,-21.47,-2.63,0.00,-0.13,1.03
373,52.95,-20.90,-1.16,0.01,-0.12,1.01
374,52.47,-20.61,-0.70,0.03,-0.12,1.01
375,52.60,-20.78,-0.64,0.03,-0.12,1.01
376,52.08,-18.85,-0.92,0.06,-0.11,1.00
377,51.25,-17.24,-1.08,0.05,-0.11,1.01
378,50.09,-16.64,-0.52,0.03,-0.10,1.00
379,51.07,-19.31,1.54,-0.00,-0.10,1.01
380,49.21,-21.47,5.98,-0.04,-0.08,1.01
381,47.25,-21.80,11.44,-0.05,-0.12,0.99
382,52.84,-20.67,16.12,-0.04,-0.08,0.99
383,53.28,-16.90,18.84,0.00,-0.07,0.98
384,52.21,-12.67,20.81,0.03,-0.07,0.96
385,53.77,-8.75,22.08,0.05,-0.09,0.95
386,52.24,-10.06,23.80,0.03,-0.06,0.98
387,51.50,-11.68,24.63,0.04,-0.06,0.99
388,51.76,-11.37,24.82,0.07,-0.05,0.99
389,51.77,-10.73,24.35,0.08,-0.04,0.97
390,51.05,-13.66,23.54,0.08,-0.03,0.98
391,48.95,-16.63,22.85,0.08,-0.02,0.99
392,54.40,-12.58,20.34,0.09,-0.02,0.96
393,44.75,-19.59,21.18,0.07,-0.01,1.01
394,44.81,-19.69,20.53,0.09,-0.02,0.97
395,44.14,-17.60,21.47,0.09,-0.01,0.96
396,43.36,-14.24,23.25,0.07,-0.00,0.96
397,43.37,-14.37,26.58,0.05,-0.00,0.96
398,43.31,-10.32,30.81,0.05,0.01,0.97
399,43.69,-7.13,34.79,0.05,0.01,0.95
400,43.08,-4.82,38.15,0.07,0.01,0.96
401,43.10,-2.12,39.98,0.10,0.01,0.95
402,42.44,-1.19,40.82,0.12,0.01,0.96
403,42.12,-2.67,40.82,0.13,0.01,0.95
404,41.30,-4.95,40.23,0.14,0.02,0.95
405,40.73,-7.05,39.18,0.14,0.02,0.96
406,40.52,-10.60,38.20,0.15,0.01,0.96
407,40.03,-13.04,36.49,0.16,0.01,0.96
408,39.16,-14.85,34.78,0.18,0.01,0.97
409,38.85,-16.38,32.89,0.19,0.01,0.97
410,39.01,-17.85,31.31,0.19,0.02,0.98
411,39.51,-17.66,30.32,0.20,0.01,0.98
412,40.05,-15.18,30.21,0.19,0.01,0.98
413,40.31,-11.08,31.18,0.20,0.01,0.98
414,40.23,-5.59,32.09,0.19,0.02,0.96
415,40.21,-1.34,34.17,0.17,0.02,0.96
416,40.44,0.98,36.82,0.15,0.03,0.95
417,40.46,2.89,40.41,0.14,0.02,0.96
418,40.76,1.22,43.74,0.13,0.04,0.94
419,40.82,-0.69,46.73,0.13,0.04,0.94
420,38.47,-1.11,49.60,0.16,0.06,0.91
421,38.06,-0.11,50.76,0.19,0.05,0.91
422,36.58,-3.85,50.96,0.20,0.05,0.90
423,35.48,-5.79,50.02,0.21,0.05,0.90
424,34.47,-7.59,49.27,0.22,0.06,0.90
425,33.34,-10.15,49.05,0.22,0.06,0.89
426,32.15,-12.21,49.37,0.22,0.06,0.89
427,30.95,-12.23,49.50,0.24,0.07,0.89
428,29.62,-9.92,49.18,0.27,0.07,0.88
429,28.20,-8.08,49.39,0.27,0.07,0.86
430,26.82,-6.50,49.28,0.28,0.08,0.87
431,24.78,-3.51,48.73,0.28,0.08,0.86
432,23.30,-0.93,48.40,0.29,0.09,0.85
433,22.35,0.56,47.82,0.28,0.10,0.85
434,21.19,2.95,46.92,0.31,0.09,0.86
435,19.82,4.32,46.03,0.30,0.10,0.85
436,18.38,5.31,45.77,0.29,0.10,0.85
437,17.39,7.69,45.27,0.30,0.10,0.86
438,17.07,6.98,43.82,0.30,0.10,0.87
439,17.08,3.01,42.49,0.29,0.10,0.88
440,16.79,-0.34,41.73,0.30,0.10,0.86
441,16.20,-2.17,41.30,0.29,0.10,0.86
442,15.68,-2.98,42.15,0.26,0.09,0.86
443,15.47,-3.27,44.66,0.24,0.09,0.86
444,14.93,-2.47,48.29,0.23,0.09,0.85
445,13.50,-0.46,50.92,0.24,0.09,0.85
446,11.95,1.69,52.55,0.27,0.08,0.86
447,10.29,3.56,53.25,0.29,0.09,0.86
448,8.92,5.69,52.73,0.31,0.09,0.86
449,7.50,7.83,51.82,0.33,0.09,0.87
450,6.44,8.47,50.99,0.31,0.09,0.87
451,5.19,8.15,50.49,0.31,0.09,0.89
452,4.29,8.41,49.73,0.31,0.09,0.87
453,4.05,8.58,49.24,0.31,0.08,0.89
454,4.09,8.46,48.37,0.31,0.08,0.90
455,4.00,8.34,47.73,0.31,0.07,0.91
456,4.55,8.82,47.08,0.31,0.06,0.90
457,3.44,7.82,46.11,0.31,0.08,0.91
458,2.58,7.69,45.28,0.31,0.07,0.90
459,2.08,5.97,44.03,0.31,0.07,0.89
460,0.96,2.40,42.14,0.32,0.08,0.91
461,-0.06,0.34,40.58,0.32,0.09,0.90
462,-1.05,-1.36,39.62,0.31,0.08,0.90
463,-2.37,-2.58,39.97,0.30,0.07,0.89
464,-2.93,-2.64,40.03,0.30,0.07,0.91
465,-3.19,-1.39,40.09,0.32,0.07,0.92
466,-3.97,-0.15,39.47,0.34,0.08,0.93
467,-4.47,0.12,38.46,0.35,0.06,0.94
468,-4.72,0.58,37.62,0.34,0.06,0.96
469,-4.24,0.66,37.13,0.32,0.05,0.96
470,-3.68,1.13,36.75,0.32,0.05,0.96
471,-3.04,2.14,35.88,0.33,0.05,0.97
472,-2.50,1.44,35.11,0.33,0.05,0.97
473,-1.74,-0.72,34.70,0.31,0.04,0.98
474,-0.81,-3.05,35.02,0.30,0.04,0.96
475,-0.53,-4.89,35.63,0.30,0.04,0.97
476,-0.47,-7.04,35.85,0.30,0.03,0.96
477,-0.67,-8.12,36.12,0.33,0.04,0.96
478,-1.36,-10.24,35.86,0.34,0.03,0.98
479,0.24,-11.13,34.89,0.36,0.04,0.99
480,-0.02,-9.40,34.70,0.35,0.04,0.97
481,-0.31,-11.82,34.17,0.35,0.04,0.98
482,-1.04,-13.92,33.37,0.38,0.04,1.00
483,-2.02,-5.37,32.64,0.42,0.05,0.98
484,-3.65,2.56,32.17,0.42,0.05,0.99
485,-3.27,0.66,31.48,0.38,0.04,0.99
486,-3.50,-6.55,30.66,0.38,0.04,0.99
487,-3.77,-12.14,30.12,0.39,0.05,0.99
488,-3.08,-16.26,28.67,0.39,0.05,1.00
489,-2.82,-16.11,28.26,0.41,0.05,1.00
490,-2.11,-12.56,28.17,0.41,0.05,1.01
491,-1.68,-9.19,28.15,0.41,0.05,1.02
492,-0.66,-7.88,28.64,0.39,0.04,1.03
493,-0.27,-8.69,28.87,0.39,0.04,1.03
494,0.15,-7.91,29.19,0.40,0.03,1.03
495,0.24,-8.41,29.69,0.38,0.03,1.03
496,0.40,-9.56,29.62,0.39,0.04,1.03
497,1.28,-12.49,28.95,0.39,0.05,1.03
498,2.41,-12.96,27.77,0.41,0.04,1.04
499,2.66,-13.79,26.84,0.41,0.04,1.02
500,2.52,-16.24,25.45,0.42,0.05,1.02
501,2.38,-16.72,24.18,0.42,0.05,1.02
502,1.79,-16.56,22.87,0.43,0.05,1.00
503,1.22,-15.27,21.53,0.43,0.05,1.00
504,0.32,-14.67,20.52,0.43,0.05,0.99
505,-0.11,-14.55,19.30,0.43,0.05,1.01
506,-0.76,-15.05,18.41,0.42,0.06,1.02
507,-1.11,-15.16,17.31,0.42,0.04,1.01
508,-1.19,-15.59,16.06,0.43,0.04,1.02
509,-0.64,-17.40,14.66,0.42,0.04,1.02
510,-0.29,-18.73,13.63,0.41,0.04,1.03
511,0.58,-19.53,12.87,0.41,0.04,1.03
512,1.16,-19.79,12.24,0.41,0.03,1.02
513,1.48,-19.89,11.94,0.40,0.04,1.02
514,1.60,-19.80,11.89,0.39,0.04,1.02
515,1.39,-18.99,12.12,0.40,0.05,1.01
516,1.66,-18.29,12.40,0.40,0.04,1.01
517,1.51,-18.09,12.55,0.39,0.05,1.01
518,1.22,-16.55,12.95,0.40,0.05,1.00
519,0.72,-15.57,13.16,0.40,0.05,1.00
520,1.05,-14.49,13.16,0.41,0.04,1.01
521,0.72,-12.69,13.11,0.40,0.05,1.01
522,0.43,-11.63,13.48,0.40,0.04,1.00
523,1.31,-10.85,13.18,0.40,0.04,1.00
524,-0.06,-9.47,13.48,0.41,0.05,1.00
525,1.08,-8.03,13.54,0.40,0.03,0.99
526,0.23,-8.90,13.15,0.40,0.04,0.98
527,0.93,-7.92,12.12,0.41,0.05,0.98
528,0.26,-6.55,11.59,0.42,0.04,0.98
529,0.60,-6.43,10.93,0.41,0.05,0.98
530,0.18,-6.15,10.40,0.41,0.05,1.01
531,0.49,-7.36,9.57,0.41,0.04,0.99
532,1.69,-8.87,8.67,0.41,0.04,1.00
533,2.06,-7.28,8.31,0.42,0.04,1.00
534,2.89,-6.44,8.20,0.41,0.04,0.99
535,3.22,-5.66,7.86,0.41,0.05,0.98
536,4.09,-5.27,7.45,0.41,0.05,0.99
537,4.43,-5.65,7.11,0.41,0.05,0.98
538,4.34,-5.82,6.32,0.43,0.06,0.98
539,3.91,-5.02,5.71,0.42,0.06,0.97
540,3.98,-4.73,4.99,0.42,0.06,0.95
541,3.82,-4.64,4.60,0.42,0.06,0.95
542,3.21,-4.50,4.29,0.42,0.07,0.96
543,3.04,-3.13,4.11,0.42,0.06,0.95
