,gyro_x,gyro_y,gyro_z,acce_x,acce_y,acce_z
0,3.24,-8.15,-0.49,-0.27,0.96,"30.37[0m
"
1,3.60,-4.15,-9.11,-0.56,-0.28,0.97
2,5.07,-12.27,-9.25,-0.64,-0.33,1.00
3,7.25,-19.62,-8.29,-0.71,-0.35,1.01
4,10.63,-24.63,-5.36,-0.77,-0.39,1.03
5,13.77,-25.24,-0.24,-0.79,-0.41,1.01
6,16.27,-22.61,6.53,-0.81,-0.45,1.00
7,18.44,-19.25,14.81,-0.84,-0.47,0.98
8,19.02,-15.39,23.80,-0.87,-0.48,0.93
9,18.53,-12.20,32.79,-0.92,-0.51,0.87
10,18.23,-13.80,42.26,-0.97,-0.53,0.84
11,18.18,-17.88,52.08,-1.00,-0.56,0.80
12,20.11,-24.95,62.60,-1.03,-0.59,0.78
13,20.03,-30.64,73.88,-1.02,-0.57,0.74
14,17.47,-35.47,87.21,-0.99,-0.50,0.69
15,15.05,-46.14,103.28,-0.95,-0.46,0.67
16,4.12,-61.28,122.64,-0.84,-0.41,0.68
17,-3.97,-71.66,138.53,-0.63,-0.38,0.74
18,-9.13,-77.95,153.65,-0.42,-0.36,0.82
19,-11.02,-79.18,168.50,-0.14,-0.31,0.95
20,-13.95,-76.20,181.92,0.18,-0.29,1.11
21,-16.37,-66.90,187.54,0.62,-0.23,1.27
22,-16.64,-48.38,183.18,1.11,-0.14,1.44
23,-12.15,-28.99,166.82,1.58,-0.05,1.62
24,-4.41,-12.75,141.37,2.01,0.05,1.76
25,8.06,-10.49,100.55,2.31,0.15,1.82
26,20.08,-12.61,54.18,2.47,0.22,1.83
27,32.02,-17.48,5.71,2.54,0.28,1.79
28,42.14,-16.90,-42.58,2.52,0.28,1.74
29,54.55,-17.13,-87.66,2.36,0.29,1.67
30,65.74,-12.53,-126.81,2.18,0.22,1.59
31,69.65,7.13,-165.63,1.98,0.12,1.49
32,71.40,31.59,-198.70,1.77,-0.00,1.37
33,75.40,55.62,-232.93,1.35,-0.26,1.26
34,84.61,95.86,-259.07,0.78,-0.53,1.10
35,82.76,141.07,-272.03,0.05,-0.70,0.90
36,74.98,187.62,-270.47,-0.77,-0.80,0.54
37,74.09,194.29,-254.11,-1.63,-0.91,0.45
38,63.34,193.68,-227.74,-2.34,-0.94,0.10
39,51.30,178.50,-188.70,-3.07,-0.93,-0.17
40,37.65,135.47,-131.63,-3.69,-0.92,-0.31
41,23.15,82.02,-60.81,-4.00,-0.90,-0.45
42,5.30,6.21,7.65,-4.00,-0.92,-0.50
43,-11.18,-54.73,68.89,-3.79,-0.92,-0.47
44,-25.16,-103.53,119.76,-3.31,-0.98,-0.34
45,-38.53,-133.28,158.89,-2.79,-1.03,-0.24
46,-52.79,-143.22,192.73,-2.34,-0.99,-0.13
47,-71.40,-150.27,230.66,-1.94,-0.84,0.00
48,-84.47,-142.21,274.12,-1.49,-0.73,0.21
49,-101.44,-129.37,309.79,-0.99,-0.66,0.48
50,-110.92,-124.70,335.60,-0.35,-0.59,0.79
51,-115.42,-120.03,345.33,0.39,-0.52,1.12
52,-112.96,-124.12,328.63,1.25,-0.45,1.49
53,-98.27,-121.18,283.74,2.15,-0.34,1.88
54,-82.56,-104.03,215.98,2.83,-0.12,2.09
55,-55.47,-86.64,148.58,3.16,-0.05,2.35
56,-25.59,-69.48,94.03,3.26,0.07,2.46
57,-2.26,-56.66,48.58,3.17,0.21,2.43
58,14.38,-38.14,17.27,3.12,0.30,2.38
59,26.21,-12.72,-11.65,3.13,0.35,2.33
60,37.66,14.15,-43.59,3.17,0.33,2.32
61,51.56,36.27,-77.97,3.19,0.30,2.32
62,66.63,66.66,-117.89,3.19,0.20,2.27
63,80.29,103.95,-164.43,2.98,0.04,2.11
64,94.43,132.84,-215.82,2.53,-0.12,1.86
65,112.90,143.31,-268.27,1.87,-0.42,1.52
66,133.85,171.42,-307.59,1.09,-0.63,1.08
67,134.63,184.20,-336.90,0.13,-0.86,0.63
68,130.47,184.24,-343.86,-0.80,-0.95,0.21
69,113.69,184.35,-333.28,-1.72,-1.06,-0.13
70,81.01,173.25,-301.45,-2.76,-1.21,-0.40
71,53.16,144.35,-242.31,-3.76,-1.38,-0.59
72,33.85,101.39,-164.27,-4.00,-1.45,-0.70
73,22.50,49.22,-76.70,-4.00,-1.44,-0.83
74,10.09,-4.00,6.18,-4.00,-1.34,-0.94
75,-9.77,-46.72,80.76,-4.00,-1.24,-1.03
76,-35.15,-72.64,144.66,-3.53,-1.19,-1.00
77,-66.46,-81.66,191.92,-2.91,-1.10,-1.04
78,-91.16,-91.30,226.35,-2.44,-1.00,-0.94
79,-120.46,-103.37,258.41,-2.03,-0.90,-0.70
80,-151.74,-109.47,285.56,-1.50,-0.80,-0.31
81,-177.34,-131.27,313.63,-0.96,-0.69,0.13
82,-191.97,-131.28,337.24,-0.21,-0.52,0.70
83,-191.74,-135.33,346.69,0.57,-0.48,1.25
84,-177.60,-139.28,323.10,1.46,-0.40,1.80
85,-155.22,-134.41,277.47,2.32,-0.30,2.34
86,-125.37,-109.50,214.00,3.03,-0.17,2.78
87,-95.39,-72.21,148.63,3.50,-0.09,3.10
88,-60.82,-27.13,92.64,3.72,-0.01,3.28
89,-22.06,7.19,45.10,3.64,0.08,3.35
90,13.62,33.89,6.49,3.45,0.14,3.34
91,42.03,63.28,-25.79,3.29,0.16,3.29
92,59.80,96.64,-57.62,3.15,0.14,3.19
93,89.45,116.98,-94.21,2.97,0.04,3.10
94,125.74,138.98,-141.44,2.73,-0.12,2.84
95,165.31,116.84,-191.91,2.16,-0.29,2.43
96,194.98,100.95,-239.39,1.60,-0.52,1.88
97,215.71,81.85,-277.45,0.97,-0.71,1.29
98,215.65,103.44,-305.07,0.34,-0.78,0.68
99,202.93,130.67,-313.50,-0.51,-0.77,0.01
100,186.69,125.76,-296.37,-1.50,-0.80,-0.54
101,149.31,100.31,-264.15,-2.36,-0.83,-0.94
102,100.81,76.85,-217.89,-2.99,-0.90,-1.12
103,51.62,60.08,-160.06,-3.39,-0.96,-1.27
104,10.00,40.14,-101.22,-3.61,-1.03,-1.32
105,-21.31,6.72,-39.76,-3.71,-1.11,-1.25
106,-47.16,-26.63,23.79,-3.69,-1.14,-1.14
107,-70.73,-45.31,87.77,-3.47,-1.15,-1.03
108,-88.96,-58.66,140.81,-3.09,-1.14,-0.88
109,-99.69,-70.61,183.36,-2.67,-1.04,-0.76
110,-126.14,-79.13,217.59,-2.21,-0.88,-0.58
111,-138.20,-108.03,248.87,-1.72,-0.75,-0.39
112,-164.82,-119.57,270.52,-0.94,-0.54,0.09
113,-178.21,-129.31,278.18,-0.23,-0.45,0.58
114,-182.76,-124.96,274.02,0.45,-0.42,1.11
115,-179.42,-110.18,254.72,1.12,-0.31,1.64
116,-162.23,-90.35,230.52,1.69,-0.25,2.11
117,-137.25,-77.53,197.45,2.13,-0.17,2.49
118,-107.48,-65.94,157.34,2.46,-0.11,2.84
119,-78.96,-43.10,114.92,2.71,-0.04,3.08
120,-52.99,-17.73,77.83,2.83,0.00,3.22
121,-23.80,3.51,42.14,2.87,0.04,3.31
122,2.29,26.23,7.44,2.86,0.07,3.32
123,28.64,50.40,-23.76,2.82,0.10,3.27
124,54.67,72.63,-55.69,2.75,0.11,3.29
125,83.04,95.02,-94.05,2.65,0.02,3.10
126,118.56,110.44,-133.01,2.35,-0.15,2.79
127,147.92,109.47,-178.53,1.88,-0.29,2.40
128,175.69,92.73,-223.25,1.22,-0.50,1.96
129,194.40,99.16,-250.56,0.58,-0.67,1.43
130,204.03,105.65,-261.85,-0.16,-0.78,0.79
131,196.08,99.34,-258.24,-0.98,-0.82,0.23
132,171.57,89.34,-240.09,-1.70,-0.87,-0.23
133,135.44,83.63,-206.82,-2.32,-0.87,-0.58
134,100.93,74.21,-162.26,-2.78,-0.90,-0.87
135,70.38,60.76,-112.06,-3.07,-0.90,-1.05
136,39.91,44.61,-63.30,-3.26,-0.90,-1.25
137,8.15,27.10,-13.94,-3.34,-0.90,-1.34
138,-23.92,9.39,35.77,-3.31,-0.88,-1.36
139,-57.97,-9.15,82.08,-3.14,-0.86,-1.34
140,-83.51,-30.58,123.31,-2.79,-0.83,-1.21
141,-110.20,-46.66,156.21,-2.34,-0.75,-1.01
142,-135.73,-57.08,185.89,-1.87,-0.59,-0.84
143,-163.68,-69.68,208.55,-1.37,-0.46,-0.53
144,-189.16,-75.28,220.64,-0.78,-0.37,-0.08
145,-205.71,-90.98,226.34,-0.19,-0.30,0.46
146,-213.34,-81.18,220.02,0.54,-0.23,1.00
147,-209.34,-69.94,200.32,1.14,-0.20,1.59
148,-192.66,-62.44,172.89,1.58,-0.16,2.17
149,-168.81,-55.11,143.13,1.89,-0.14,2.73
150,-144.96,-35.15,116.76,2.15,-0.12,3.05
151,-113.27,-18.14,87.28,2.33,-0.19,3.55
152,-81.19,-2.50,59.42,2.51,-0.19,3.80
153,-41.40,12.70,25.94,2.62,-0.23,4.00
154,0.87,30.38,-10.23,2.68,-0.25,4.00
155,46.58,51.18,-47.22,2.65,-0.29,4.00
156,96.29,70.38,-87.30,2.47,-0.35,3.82
157,151.71,76.63,-125.74,2.15,-0.44,3.42
158,194.20,93.57,-168.37,1.74,-0.41,2.83
159,232.14,75.77,-186.03,1.09,-0.53,2.10
160,257.08,53.94,-212.66,0.70,-0.62,1.67
161,257.89,74.66,-228.73,0.32,-0.60,0.77
162,242.06,100.89,-236.79,-0.21,-0.65,0.07
163,216.58,115.85,-236.76,-0.89,-0.68,-0.61
164,180.35,114.35,-229.08,-1.65,-0.71,-1.17
165,136.12,100.37,-205.05,-2.45,-0.74,-1.64
166,83.98,72.76,-165.60,-3.03,-0.82,-1.85
167,26.34,38.55,-114.31,-3.40,-0.85,-1.93
168,-30.31,6.24,-57.60,-3.52,-0.92,-1.86
169,-74.78,-12.26,2.56,-3.38,-0.94,-1.70
170,-101.42,-25.77,59.11,-3.13,-0.93,-1.48
171,-117.66,-48.37,111.57,-2.72,-0.89,-1.17
172,-132.26,-60.18,151.66,-2.25,-0.77,-0.99
173,-154.27,-75.73,175.15,-1.68,-0.64,-0.74
174,-178.14,-80.58,182.69,-1.09,-0.49,-0.45
175,-197.33,-84.08,183.98,-0.59,-0.41,-0.01
176,-208.85,-87.16,184.75,-0.14,-0.38,0.59
177,-208.69,-85.92,187.25,0.31,-0.35,1.18
178,-204.46,-72.09,183.01,0.81,-0.33,1.79
179,-193.24,-49.77,168.35,1.26,-0.29,2.21
180,-163.86,-48.49,147.19,1.58,-0.34,2.83
181,-127.37,-47.91,117.16,1.84,-0.34,3.29
182,-86.95,-32.49,83.01,2.07,-0.32,3.66
183,-41.80,-8.90,47.36,2.13,-0.32,3.87
184,6.23,11.39,18.56,2.12,-0.34,3.98
185,48.61,26.18,-7.39,2.04,-0.35,3.98
186,88.82,34.85,-32.05,1.93,-0.35,3.85
187,126.75,47.73,-60.60,1.80,-0.33,3.53
188,163.92,59.80,-92.14,1.63,-0.40,3.18
189,206.05,71.73,-127.30,1.31,-0.42,2.73
190,242.73,59.77,-151.15,0.79,-0.57,1.99
191,258.47,42.75,-184.53,0.34,-0.59,1.36
192,270.43,39.37,-202.27,-0.23,-0.63,0.56
193,260.75,42.11,-209.02,-0.85,-0.67,-0.08
194,232.67,51.89,-205.19,-1.50,-0.68,-0.72
195,191.31,59.36,-183.42,-2.14,-0.68,-1.26
196,139.13,60.58,-144.99,-2.71,-0.68,-1.65
197,86.43,44.21,-95.08,-3.15,-0.73,-1.84
198,33.56,27.56,-41.56,-3.39,-0.77,-1.94
199,-10.34,8.49,17.02,-3.46,-0.75,-1.95
200,-48.34,-15.31,76.50,-3.32,-0.72,-1.88
201,-82.73,-39.11,128.09,-2.95,-0.72,-1.78
202,-114.53,-60.18,167.83,-2.46,-0.75,-1.53
203,-146.37,-62.61,196.67,-1.91,-0.64,-1.37
204,-182.29,-67.86,212.70,-1.40,-0.59,-1.01
205,-216.58,-82.02,220.84,-0.93,-0.55,-0.53
206,-239.85,-101.95,225.68,-0.51,-0.54,0.02
207,-253.04,-104.32,230.15,0.08,-0.53,0.72
208,-255.68,-104.90,226.85,0.61,-0.52,1.36
209,-251.42,-94.27,213.02,1.19,-0.58,2.04
210,-235.40,-77.69,193.92,1.65,-0.55,2.62
211,-206.64,-61.83,166.46,1.97,-0.57,3.22
212,-166.96,-51.51,133.68,2.23,-0.60,3.76
213,-122.06,-28.95,96.66,2.44,-0.56,4.00
214,-74.47,-2.61,61.76,2.54,-0.55,4.00
215,-23.11,15.63,27.68,2.55,-0.53,4.00
216,26.98,28.89,-7.11,2.50,-0.56,4.00
217,79.37,32.47,-41.50,2.38,-0.56,4.00
218,131.66,34.24,-74.55,2.21,-0.56,4.00
219,184.26,26.24,-110.84,2.00,-0.60,3.59
220,233.05,40.05,-147.71,1.80,-0.54,3.00
221,270.38,25.22,-170.64,1.37,-0.63,2.45
222,293.62,24.98,-205.50,1.01,-0.62,1.62
223,304.98,38.52,-233.07,0.53,-0.60,0.84
224,302.64,48.08,-251.71,-0.03,-0.65,0.16
225,285.19,62.09,-262.34,-0.74,-0.58,-0.65
226,243.33,67.33,-258.95,-1.60,-0.56,-1.42
227,185.34,64.40,-237.33,-2.35,-0.60,-1.92
228,116.53,53.77,-198.52,-3.05,-0.72,-2.17
229,53.27,32.72,-139.50,-3.62,-0.80,-2.23
230,-13.86,17.11,-65.15,-3.93,-0.88,-2.09
231,-59.66,-0.52,13.97,-3.92,-0.93,-1.92
232,-90.46,-9.56,81.76,-3.60,-0.89,-1.66
233,-116.03,-19.80,135.51,-3.19,-0.81,-1.51
234,-148.70,-26.32,179.33,-2.51,-0.74,-1.25
235,-176.12,-34.90,206.67,-1.87,-0.72,-1.01
236,-209.77,-33.88,214.26,-1.17,-0.65,-0.65
237,-235.02,-35.73,208.95,-0.72,-0.58,-0.20
238,-251.40,-32.41,209.34,-0.34,-0.57,0.31
239,-258.90,-33.45,212.52,-0.04,-0.57,0.87
240,-265.85,-35.16,209.50,0.35,-0.51,1.30
241,-254.66,-46.26,204.81,0.75,-0.62,2.09
242,-229.22,-58.35,195.44,1.25,-0.64,2.67
243,-191.94,-58.52,171.71,1.72,-0.67,3.27
244,-150.95,-38.09,138.92,2.14,-0.67,3.78
245,-102.55,-11.16,98.84,2.40,-0.67,4.00
246,-50.67,5.98,57.48,2.51,-0.64,4.00
247,3.89,10.21,18.63,2.49,-0.66,4.00
248,54.08,10.24,-19.83,2.43,-0.66,4.00
249,109.47,12.15,-55.71,2.30,-0.65,4.00
250,159.45,15.74,-88.18,2.17,-0.64,3.75
251,200.37,25.21,-122.55,1.98,-0.65,3.26
252,241.36,28.66,-156.43,1.74,-0.67,2.85
253,263.30,49.18,-186.50,1.46,-0.63,2.04
254,282.90,93.04,-213.97,1.10,-0.50,1.28
255,285.54,77.24,-232.35,0.38,-0.56,0.64
256,282.64,67.30,-247.73,-0.34,-0.55,-0.03
257,254.69,67.13,-251.10,-1.07,-0.58,-0.63
258,223.02,68.78,-236.85,-1.79,-0.72,-1.14
259,186.20,56.18,-214.27,-2.47,-0.74,-1.52
260,138.84,29.05,-175.71,-3.03,-0.76,-1.76
261,87.48,18.11,-121.59,-3.36,-0.70,-1.96
262,32.90,13.74,-61.16,-3.52,-0.69,-2.04
263,-25.73,18.81,0.58,-3.46,-0.57,-2.14
264,-76.35,16.82,54.67,-3.29,-0.52,-1.99
265,-121.15,21.98,104.43,-2.95,-0.48,-1.79
266,-162.37,25.08,152.23,-2.59,-0.47,-1.56
267,-200.29,15.19,195.34,-2.18,-0.51,-1.18
268,-224.21,5.08,221.44,-1.63,-0.59,-0.80
269,-249.44,-7.16,229.97,-1.10,-0.66,-0.41
270,-271.48,2.23,224.67,-0.61,-0.68,0.09
271,-283.66,-12.32,216.34,-0.34,-0.70,0.65
272,-281.94,-36.53,209.88,-0.05,-0.83,1.32
273,-261.92,-52.87,204.95,0.26,-0.88,1.97
274,-233.74,-50.03,192.40,0.67,-0.94,2.64
275,-203.91,-37.68,178.21,1.00,-0.91,3.19
276,-168.47,-27.01,158.82,1.33,-0.89,3.66
277,-126.32,-24.78,132.98,1.69,-0.84,4.00
278,-75.13,-24.41,97.91,2.01,-0.81,4.00
279,-20.52,-17.66,58.82,2.23,-0.78,4.00
280,35.92,-10.05,19.74,2.32,-0.76,4.00
281,92.40,-4.69,-18.78,2.32,-0.74,4.00
282,144.21,-3.42,-56.58,2.24,-0.74,4.00
283,191.59,1.57,-94.75,2.15,-0.75,3.76
284,231.66,10.37,-130.21,1.99,-0.79,3.31
285,269.13,39.34,-164.43,1.84,-0.71,2.78
286,295.28,63.04,-194.24,1.50,-0.69,2.08
287,304.34,76.26,-214.32,0.99,-0.66,1.24
288,301.31,71.95,-228.93,0.46,-0.54,0.57
289,294.52,70.50,-243.27,-0.14,-0.42,-0.10
290,271.74,75.56,-248.34,-0.76,-0.39,-0.79
291,242.84,71.36,-244.27,-1.48,-0.38,-1.34
292,198.90,42.60,-234.27,-2.21,-0.45,-1.73
293,149.65,9.60,-208.75,-2.87,-0.54,-1.99
294,101.74,-11.40,-164.09,-3.39,-0.53,-2.14
295,53.39,-23.80,-101.24,-3.70,-0.48,-2.24
296,2.60,-25.44,-31.69,-3.74,-0.41,-2.25
297,-49.15,-19.25,34.93,-3.60,-0.37,-2.09
298,-105.89,2.73,96.29,-3.24,-0.31,-1.98
299,-154.87,17.02,150.82,-2.89,-0.33,-1.63
300,-198.50,25.13,199.65,-2.42,-0.39,-1.19
301,-233.30,26.98,237.36,-1.92,-0.46,-0.81
302,-263.68,34.72,256.47,-1.33,-0.57,-0.40
303,-281.25,33.57,252.81,-0.80,-0.69,0.10
304,-282.46,27.19,237.50,-0.39,-0.77,0.59
305,-270.82,8.75,217.44,-0.15,-0.92,1.23
306,-254.67,-10.11,203.83,0.04,-0.92,1.76
307,-231.18,-33.92,195.08,0.26,-0.95,2.29
308,-204.84,-54.99,185.22,0.62,-0.93,2.79
309,-173.73,-65.80,168.72,1.08,-0.88,3.27
310,-135.27,-67.30,142.66,1.55,-0.83,3.71
311,-91.69,-61.92,109.37,1.96,-0.75,4.00
312,-47.16,-54.34,71.48,2.28,-0.68,4.00
313,1.25,-48.29,29.37,2.50,-0.66,4.00
314,54.63,-42.15,-15.18,2.61,-0.67,4.00
315,108.08,-30.90,-60.96,2.66,-0.69,4.00
316,159.89,-19.89,-108.15,2.57,-0.71,4.00
317,205.76,-15.07,-152.55,2.38,-0.77,3.62
318,250.95,-26.05,-189.83,2.08,-0.91,3.11
319,272.84,13.89,-224.70,1.89,-0.82,2.25
320,280.53,22.00,-249.16,1.39,-0.93,1.78
321,296.12,27.71,-275.08,0.90,-0.85,1.14
322,294.37,45.63,-292.11,0.34,-0.82,0.48
323,284.98,73.19,-305.28,-0.39,-0.78,-0.17
324,265.13,72.05,-307.57,-1.26,-0.76,-0.78
325,236.02,44.98,-294.98,-2.20,-0.73,-1.29
326,196.29,12.03,-262.81,-3.01,-0.69,-1.74
327,150.89,-16.96,-216.05,-3.62,-0.63,-2.04
328,99.13,-32.18,-152.41,-3.98,-0.52,-2.22
329,44.00,-25.48,-80.58,-4.00,-0.42,-2.33
330,-13.63,-5.28,-5.77,-3.94,-0.33,-2.27
331,-65.08,22.34,60.90,-3.63,-0.28,-2.08
332,-107.19,38.61,118.35,-3.28,-0.25,-1.84
333,-151.48,47.59,171.24,-2.88,-0.26,-1.56
334,-193.80,59.60,216.15,-2.39,-0.24,-1.29
335,-231.69,70.05,248.32,-1.83,-0.29,-0.92
336,-258.50,70.67,260.53,-1.24,-0.39,-0.44
337,-272.31,56.17,252.85,-0.70,-0.56,0.08
338,-274.08,37.76,234.03,-0.30,-0.64,0.50
339,-264.15,17.95,217.98,-0.05,-0.79,1.18
340,-248.99,-3.74,202.58,0.17,-0.84,1.67
341,-228.70,-23.05,187.40,0.41,-0.93,2.24
342,-204.55,-40.69,168.40,0.70,-0.99,2.78
343,-172.49,-53.31,145.63,1.04,-0.99,3.34
344,-133.42,-60.21,118.15,1.37,-1.00,3.78
345,-86.44,-59.28,87.01,1.65,-0.96,4.00
346,-39.57,-55.68,55.16,1.86,-0.90,4.00
347,7.59,-47.21,21.54,2.01,-0.86,4.00
348,56.53,-33.13,-12.72,2.14,-0.80,4.00
349,100.84,-16.44,-52.12,2.19,-0.80,4.00
350,145.95,-0.82,-91.07,2.12,-0.76,3.79
351,183.86,9.63,-123.80,1.92,-0.79,3.42
352,213.18,23.65,-153.62,1.71,-0.81,2.92
353,236.85,35.15,-183.10,1.38,-0.85,2.40
354,255.82,39.91,-207.25,1.01,-0.84,1.80
355,267.77,54.09,-223.98,0.63,-0.86,1.24
356,276.15,50.35,-236.17,0.10,-0.76,0.63
357,275.21,49.15,-241.56,-0.36,-0.65,0.02
358,261.71,44.56,-241.37,-0.87,-0.50,-0.57
359,232.06,41.07,-233.11,-1.41,-0.34,-1.12
360,192.98,34.02,-217.30,-1.96,-0.20,-1.56
361,149.39,21.19,-194.20,-2.45,-0.11,-1.89
362,102.09,5.68,-161.60,-2.91,-0.06,-2.06
363,54.47,-6.00,-118.96,-3.23,-0.02,-2.14
364,3.77,-5.73,-65.27,-3.37,0.02,-2.21
365,-50.31,3.63,-7.71,-3.31,0.03,-2.12
366,-92.32,15.68,44.96,-3.13,-0.03,-1.88
367,-134.78,36.50,94.63,-2.83,-0.08,-1.59
368,-175.40,50.79,140.17,-2.52,-0.11,-1.27
369,-211.15,57.59,177.71,-2.13,-0.20,-0.95
370,-238.09,61.13,201.63,-1.66,-0.29,-0.49
371,-250.56,53.76,207.95,-1.23,-0.44,-0.03
372,-257.45,53.04,204.18,-0.75,-0.57,0.47
373,-250.11,29.37,194.08,-0.52,-0.70,1.10
374,-239.83,2.21,178.66,-0.25,-0.79,1.50
375,-224.79,-22.31,162.03,0.05,-0.85,2.06
376,-200.44,-51.01,145.74,0.36,-0.92,2.62
377,-164.34,-83.66,125.08,0.72,-0.98,3.17
378,-122.12,-99.44,100.34,1.15,-0.97,3.63
379,-77.86,-96.12,72.20,1.55,-0.93,3.94
380,-36.43,-80.32,40.08,1.89,-0.88,4.00
381,10.21,-63.85,6.52,2.09,-0.88,4.00
382,54.90,-41.10,-32.99,2.24,-0.86,4.00
383,101.13,-18.05,-71.11,2.28,-0.85,4.00
384,143.25,4.08,-111.47,2.17,-0.85,3.74
385,180.23,20.14,-144.70,1.91,-0.88,3.29
386,208.49,28.66,-172.56,1.55,-0.92,2.76
387,234.70,43.69,-194.02,1.16,-0.94,2.16
388,252.31,50.78,-213.27,0.73,-0.94,1.56
389,264.49,55.89,-229.16,0.31,-0.89,0.97
390,268.09,62.84,-238.96,-0.08,-0.81,0.40
391,264.12,61.28,-241.05,-0.61,-0.65,-0.24
392,246.09,51.97,-239.08,-1.17,-0.46,-0.82
393,215.54,32.09,-232.69,-1.83,-0.24,-1.40
394,174.11,5.79,-216.79,-2.37,-0.10,-1.81
395,124.20,-22.06,-188.24,-2.88,0.01,-2.05
396,74.24,-49.79,-142.87,-3.22,0.05,-2.16
397,21.42,-60.38,-89.98,-3.32,0.06,-2.13
398,-29.42,-42.75,-34.23,-3.19,0.10,-2.03
399,-72.24,-6.93,22.72,-3.01,0.10,-1.88
400,-116.31,26.72,75.94,-2.79,0.07,-1.65
