,gyro_x,gyro_y,gyro_z,acce_x,acce_y,acce_z
0,0.99,5.86,-1.66,0.08,-0.12,1.11
1,2.12,5.95,-2.05,0.09,-0.12,1.08
2,3.16,5.66,-1.97,0.08,-0.12,1.06
3,3.05,5.73,-1.92,0.07,-0.11,1.04
4,2.20,5.89,-1.71,0.07,-0.10,1.04
5,0.82,5.66,-1.40,0.06,-0.11,1.04
6,-0.79,4.73,-1.11,0.07,-0.11,1.05
7,-1.07,4.89,-0.20,0.08,-0.12,1.04
8,-0.61,4.69,0.02,0.08,-0.12,1.07
9,-0.38,5.91,-0.02,0.10,-0.11,1.08
10,0.29,8.35,-0.26,0.12,-0.11,1.09
11,1.04,11.05,-0.61,0.15,-0.11,1.10
12,2.17,12.35,-2.93,0.17,-0.11,1.10
13,5.15,17.04,-4.70,0.19,-0.13,1.11
14,7.28,19.97,-7.19,0.17,-0.12,1.11
15,8.53,21.25,-10.43,0.17,-0.12,1.08
16,10.03,21.25,-15.21,0.13,-0.13,1.06
17,11.74,13.62,-21.36,0.02,-0.14,1.05
18,15.19,-0.12,-26.85,-0.11,-0.18,1.03
19,19.83,-22.08,-31.88,-0.25,-0.20,1.01
20,24.05,-49.51,-35.30,-0.40,-0.22,0.97
21,27.62,-79.80,-34.15,-0.47,-0.18,0.92
22,27.36,-105.79,-28.56,-0.49,-0.18,0.90
23,24.99,-129.94,-22.55,-0.44,-0.15,0.90
24,19.80,-145.66,-15.69,-0.34,-0.14,0.91
25,14.17,-151.77,-8.75,-0.23,-0.15,0.94
26,10.20,-149.92,-3.18,-0.11,-0.18,0.99
27,11.18,-141.97,0.96,-0.02,-0.22,1.03
28,12.02,-132.89,3.50,0.04,-0.24,1.09
29,14.72,-119.69,7.60,0.07,-0.28,1.13
30,18.98,-108.53,11.83,0.08,-0.33,1.13
31,21.53,-100.99,16.56,0.07,-0.33,1.12
32,22.81,-96.76,22.08,0.03,-0.33,1.11
33,23.18,-94.44,29.79,0.01,-0.32,1.08
34,23.19,-90.79,39.08,0.02,-0.31,1.03
35,23.56,-86.50,50.24,0.05,-0.28,0.99
36,21.98,-80.31,63.50,0.11,-0.23,0.96
37,19.19,-70.37,76.53,0.24,-0.21,0.96
38,16.49,-55.24,88.44,0.41,-0.19,0.96
39,15.27,-38.27,98.95,0.59,-0.15,0.98
40,14.03,-17.86,103.31,0.77,-0.14,1.02
41,12.02,5.66,101.54,0.99,-0.12,1.06
42,13.08,26.17,90.66,1.18,-0.11,1.11
43,15.13,51.92,72.99,1.31,-0.08,1.14
44,18.14,73.16,52.02,1.40,-0.03,1.15
45,21.47,92.99,30.14,1.36,0.02,1.07
46,21.57,114.17,10.58,1.31,0.08,1.01
47,20.82,125.16,-7.79,1.20,0.12,0.95
48,15.57,133.82,-25.66,1.07,0.16,0.84
49,5.16,136.85,-40.78,0.89,0.18,0.83
50,1.86,133.39,-54.76,0.65,0.15,0.79
51,-5.76,122.89,-65.69,0.44,0.12,0.77
52,-11.89,105.01,-74.17,0.20,0.10,0.78
53,-14.37,80.27,-79.24,-0.03,0.04,0.78
54,-11.65,50.89,-84.84,-0.26,-0.05,0.83
55,-9.27,17.51,-85.27,-0.45,-0.14,0.87
56,-8.27,-12.85,-78.55,-0.59,-0.21,0.93
57,-10.64,-36.34,-63.89,-0.67,-0.26,0.98
58,-12.02,-62.17,-43.53,-0.70,-0.35,1.08
59,-14.23,-78.89,-17.79,-0.64,-0.41,1.14
60,-13.79,-87.22,8.69,-0.59,-0.48,1.20
61,-10.32,-93.92,33.01,-0.49,-0.51,1.24
62,-8.52,-88.79,55.01,-0.33,-0.52,1.28
63,-4.82,-74.76,73.85,-0.18,-0.50,1.31
64,5.71,-63.77,88.95,-0.04,-0.47,1.34
65,15.53,-51.62,101.04,0.10,-0.42,1.34
66,21.65,-37.19,109.15,0.28,-0.36,1.31
67,21.51,-24.20,112.73,0.48,-0.30,1.31
68,22.12,-6.70,110.90,0.67,-0.23,1.31
69,26.84,9.25,102.40,0.79,-0.20,1.30
70,30.40,26.38,90.11,0.90,-0.15,1.30
71,36.92,33.05,73.95,0.96,-0.10,1.28
72,41.22,44.70,58.09,0.99,-0.02,1.18
73,43.04,59.28,43.79,0.99,0.07,1.11
74,41.73,70.99,30.27,0.95,0.11,1.03
75,38.67,83.10,18.40,0.90,0.19,0.95
76,30.14,93.69,6.89,0.85,0.22,0.88
77,24.31,102.06,-5.40,0.75,0.24,0.82
78,18.26,104.92,-20.92,0.59,0.23,0.75
79,14.05,98.12,-38.11,0.36,0.18,0.70
80,12.53,76.61,-53.30,0.06,0.14,0.67
81,9.07,42.46,-64.02,-0.24,0.10,0.66
82,11.42,3.01,-67.98,-0.42,0.03,0.68
83,6.38,-36.63,-64.08,-0.54,-0.04,0.71
84,1.74,-64.06,-52.79,-0.54,-0.11,0.76
85,-6.82,-77.47,-36.27,-0.52,-0.18,0.76
86,-13.10,-84.84,-16.20,-0.44,-0.27,0.87
87,-18.27,-89.15,5.42,-0.40,-0.31,0.96
88,-19.76,-79.01,29.19,-0.30,-0.34,1.04
89,-17.88,-73.01,52.00,-0.24,-0.36,1.12
90,-19.25,-60.84,74.37,-0.11,-0.34,1.20
91,-12.49,-54.87,93.42,0.03,-0.31,1.26
92,-4.06,-48.27,108.90,0.17,-0.30,1.31
93,1.79,-31.60,120.15,0.43,-0.24,1.34
94,3.77,-14.95,125.13,0.64,-0.17,1.31
95,8.95,3.05,123.07,0.84,-0.08,1.27
96,7.77,19.30,110.79,1.00,-0.03,1.27
97,8.69,35.83,90.32,1.14,0.03,1.24
98,13.28,47.53,64.58,1.18,0.08,1.24
99,19.24,56.00,37.62,1.18,0.11,1.22
100,22.96,64.84,12.61,1.15,0.17,1.16
101,22.46,80.17,-6.03,1.08,0.21,1.08
102,18.56,99.37,-18.40,1.05,0.21,1.04
103,15.54,119.76,-28.26,0.95,0.18,0.99
104,12.21,133.40,-39.88,0.79,0.14,0.96
105,15.02,137.40,-53.30,0.57,0.08,0.92
106,14.46,129.48,-66.96,0.33,0.03,0.89
107,18.92,108.92,-79.42,0.05,-0.02,0.85
108,22.46,78.95,-86.93,-0.17,-0.04,0.79
109,22.46,47.53,-90.00,-0.36,-0.06,0.76
110,22.15,16.55,-89.33,-0.47,-0.08,0.74
111,18.58,-8.95,-83.86,-0.54,-0.13,0.74
112,12.24,-26.85,-72.61,-0.58,-0.16,0.75
113,6.34,-36.96,-56.49,-0.61,-0.20,0.77
114,1.92,-41.33,-38.32,-0.60,-0.23,0.82
115,-1.86,-43.59,-19.66,-0.58,-0.27,0.84
116,-6.03,-43.56,-2.00,-0.55,-0.31,0.88
117,-11.76,-40.84,13.45,-0.52,-0.34,0.92
118,-14.47,-40.26,27.45,-0.50,-0.37,0.97
119,-13.76,-40.81,41.71,-0.48,-0.38,1.00
120,-13.79,-39.97,58.00,-0.45,-0.35,1.04
121,-11.69,-38.95,73.51,-0.39,-0.31,1.07
122,-7.30,-38.89,89.08,-0.31,-0.26,1.11
123,-6.40,-41.53,100.96,-0.22,-0.24,1.12
124,-5.74,-44.95,109.51,-0.08,-0.20,1.14
125,-6.55,-45.07,113.63,0.09,-0.14,1.18
126,-3.47,-42.60,112.85,0.29,-0.10,1.22
127,-1.02,-38.37,107.44,0.47,-0.08,1.26
128,3.71,-33.66,97.71,0.64,-0.04,1.29
129,7.94,-26.02,82.76,0.77,-0.02,1.30
130,6.78,-13.42,67.76,0.91,0.03,1.33
131,12.18,-0.11,52.79,0.96,0.04,1.32
132,15.57,14.34,40.06,0.97,0.08,1.29
133,19.19,26.64,29.34,0.96,0.12,1.27
134,22.15,34.03,19.48,0.93,0.15,1.22
135,22.44,34.43,10.38,0.89,0.17,1.19
136,19.89,38.82,1.19,0.87,0.19,1.13
137,18.75,42.50,-8.61,0.83,0.19,1.09
138,19.71,38.98,-21.08,0.73,0.18,1.08
139,21.86,31.95,-34.11,0.64,0.15,1.04
140,24.66,23.28,-47.62,0.54,0.13,1.01
141,27.02,13.56,-60.08,0.41,0.10,0.97
142,28.26,1.15,-71.16,0.26,0.07,0.93
143,28.67,-11.57,-78.70,0.13,0.05,0.90
144,26.18,-24.02,-82.85,0.01,0.02,0.88
145,26.26,-31.33,-84.26,-0.09,-0.02,0.86
146,19.79,-41.65,-82.95,-0.21,-0.06,0.86
147,17.39,-42.85,-77.34,-0.26,-0.11,0.85
148,12.44,-41.05,-68.05,-0.33,-0.17,0.87
149,9.50,-37.27,-57.60,-0.37,-0.22,0.86
150,4.43,-31.01,-44.06,-0.42,-0.26,0.85
151,1.28,-22.93,-29.15,-0.50,-0.29,0.88
152,-3.13,-14.47,-13.27,-0.51,-0.32,0.86
153,-6.90,-9.98,2.61,-0.56,-0.33,0.89
154,-10.11,-9.13,20.02,-0.62,-0.32,0.91
155,-11.94,-13.68,39.08,-0.65,-0.33,0.93
156,-13.91,-19.07,58.72,-0.62,-0.30,0.97
157,-14.17,-26.99,76.67,-0.52,-0.29,1.02
158,-12.85,-32.99,89.86,-0.42,-0.28,1.05
159,-11.44,-38.41,100.90,-0.26,-0.24,1.09
160,-10.60,-40.34,107.16,-0.13,-0.18,1.12
161,-5.98,-42.70,114.17,0.05,-0.19,1.15
162,-1.16,-37.25,119.22,0.25,-0.09,1.22
163,-0.52,-32.58,120.44,0.44,-0.05,1.26
164,4.21,-25.95,118.38,0.63,-0.01,1.26
165,7.39,-18.08,114.32,0.77,0.04,1.30
166,7.92,-15.85,104.52,0.94,0.09,1.33
167,10.47,-9.92,90.93,1.11,0.12,1.34
168,12.96,-1.05,73.91,1.22,0.14,1.34
169,18.40,6.63,55.10,1.30,0.18,1.34
170,24.02,15.15,35.04,1.32,0.22,1.33
171,27.42,26.02,16.46,1.32,0.25,1.24
172,26.00,40.38,0.56,1.26,0.29,1.20
173,24.24,50.56,-12.17,1.19,0.31,1.15
174,24.27,57.33,-25.05,1.09,0.30,1.09
175,23.04,61.02,-36.96,0.98,0.31,1.04
176,24.08,58.32,-49.92,0.84,0.27,1.01
177,23.42,46.61,-62.44,0.69,0.25,0.98
178,25.74,34.06,-74.70,0.55,0.21,0.95
179,27.65,17.92,-87.24,0.42,0.15,0.93
180,28.84,5.18,-96.99,0.31,0.12,0.91
181,31.02,-4.27,-103.63,0.20,0.09,0.87
182,29.18,-10.17,-106.89,0.09,0.06,0.85
183,24.27,-15.89,-107.45,-0.02,0.02,0.85
184,21.50,-17.04,-105.63,-0.15,-0.03,0.84
185,16.50,-16.06,-100.26,-0.27,-0.09,0.83
186,12.29,-17.59,-91.83,-0.41,-0.15,0.84
187,7.56,-14.56,-80.81,-0.51,-0.21,0.82
188,3.69,-15.98,-67.04,-0.62,-0.27,0.87
189,1.69,-17.88,-51.48,-0.69,-0.33,0.88
190,0.23,-20.69,-34.44,-0.74,-0.39,0.91
191,-2.53,-22.15,-16.84,-0.76,-0.44,0.94
192,-4.85,-18.92,1.71,-0.78,-0.48,0.93
193,-7.80,-15.07,20.40,-0.78,-0.50,0.93
194,-10.11,-12.60,38.61,-0.79,-0.51,0.95
195,-11.88,-13.40,57.68,-0.79,-0.49,0.95
196,-13.16,-15.57,77.36,-0.75,-0.46,0.96
197,-13.18,-19.45,95.71,-0.66,-0.41,0.98
198,-13.36,-25.10,109.86,-0.52,-0.37,0.99
199,-13.02,-31.97,122.92,-0.36,-0.32,1.03
200,-12.37,-36.75,133.39,-0.17,-0.27,1.05
201,-11.30,-37.18,141.48,0.04,-0.22,1.09
202,-11.15,-34.24,145.51,0.26,-0.17,1.10
203,-8.41,-30.08,147.27,0.46,-0.12,1.14
204,-4.27,-23.18,146.38,0.65,-0.06,1.19
205,-5.63,-15.92,142.96,0.84,-0.00,1.21
206,-2.98,-10.32,135.01,1.01,0.05,1.25
207,-3.07,-6.85,124.00,1.19,0.10,1.28
208,3.11,-6.64,107.98,1.31,0.13,1.31
209,10.76,-9.89,89.24,1.43,0.10,1.33
210,6.64,-7.94,65.66,1.46,0.21,1.30
211,12.00,1.69,45.36,1.54,0.24,1.29
212,14.70,2.79,24.44,1.53,0.30,1.27
213,16.96,13.92,6.85,1.58,0.35,1.24
214,18.81,25.57,-9.51,1.58,0.38,1.21
215,19.02,38.31,-24.58,1.57,0.42,1.17
216,13.27,58.11,-41.39,1.53,0.42,1.13
217,6.90,70.00,-57.01,1.42,0.37,1.10
218,1.25,87.11,-71.97,1.31,0.35,1.05
219,-1.33,95.13,-87.54,1.16,0.27,1.01
220,-4.53,98.17,-104.75,0.97,0.19,1.00
221,3.47,96.98,-122.82,0.72,0.07,0.98
222,3.88,88.98,-140.08,0.52,-0.01,0.96
223,10.14,73.59,-153.73,0.25,-0.11,0.93
224,9.95,65.94,-161.01,-0.01,-0.21,0.91
225,12.61,50.24,-160.67,-0.30,-0.31,0.96
226,13.01,35.65,-151.28,-0.50,-0.40,0.96
227,16.35,25.92,-135.18,-0.73,-0.47,0.97
228,21.39,16.58,-115.53,-0.92,-0.53,0.96
229,26.17,11.86,-92.47,-1.06,-0.57,0.90
230,26.24,3.66,-67.66,-1.16,-0.57,0.85
231,23.94,-0.03,-43.28,-1.21,-0.54,0.79
232,19.37,-5.74,-18.44,-1.23,-0.52,0.74
233,14.05,-8.78,5.04,-1.20,-0.49,0.72
234,5.85,-9.24,26.64,-1.15,-0.47,0.70
235,-1.89,-11.15,47.04,-1.08,-0.45,0.69
236,-9.34,-11.91,66.95,-1.02,-0.42,0.70
237,-10.09,-17.51,86.78,-0.94,-0.38,0.73
238,-15.86,-20.90,104.55,-0.80,-0.33,0.78
239,-21.15,-28.43,120.18,-0.63,-0.31,0.84
240,-21.48,-32.26,133.13,-0.45,-0.26,0.91
241,-24.34,-32.20,141.95,-0.23,-0.25,1.00
242,-19.21,-33.48,146.70,-0.02,-0.23,1.06
243,-18.50,-30.49,149.89,0.19,-0.14,1.19
244,-9.68,-34.82,148.66,0.41,-0.11,1.22
245,-6.14,-30.81,146.56,0.63,-0.01,1.25
246,-4.40,-28.95,140.75,0.78,0.03,1.29
247,-4.85,-21.05,133.57,0.98,0.10,1.32
248,-5.22,-12.61,120.95,1.14,0.15,1.35
249,-2.85,-7.33,104.38,1.26,0.17,1.39
250,2.69,-0.08,84.64,1.36,0.19,1.41
251,7.39,10.38,66.69,1.45,0.19,1.46
252,12.69,10.46,46.98,1.48,0.26,1.48
253,25.18,9.37,21.89,1.46,0.23,1.51
254,28.44,8.67,1.13,1.48,0.26,1.47
255,38.72,9.11,-17.42,1.44,0.28,1.45
256,45.82,17.97,-32.47,1.42,0.32,1.37
257,42.76,22.50,-48.72,1.35,0.31,1.29
258,43.21,32.95,-64.44,1.27,0.29,1.24
259,47.69,40.41,-76.20,1.11,0.29,1.18
260,44.70,45.40,-89.56,0.97,0.25,1.11
261,43.73,50.82,-101.83,0.79,0.20,1.03
262,43.04,55.22,-111.79,0.58,0.16,0.96
263,44.58,53.89,-120.79,0.36,0.11,0.91
264,46.76,46.90,-129.47,0.15,0.07,0.84
265,45.11,38.14,-134.40,-0.06,-0.00,0.74
266,42.89,29.85,-135.48,-0.30,-0.03,0.71
267,40.76,15.48,-131.57,-0.56,-0.05,0.65
268,34.85,4.96,-121.59,-0.72,-0.12,0.60
269,30.02,-5.80,-108.78,-0.88,-0.15,0.58
270,24.09,-12.82,-90.37,-0.97,-0.19,0.54
271,13.01,-17.19,-68.35,-1.05,-0.24,0.55
272,4.43,-18.85,-44.34,-1.10,-0.26,0.57
273,-7.27,-12.92,-17.62,-1.12,-0.31,0.58
274,-18.15,-10.31,9.25,-1.09,-0.32,0.64
275,-27.33,-10.81,33.57,-1.05,-0.35,0.69
276,-34.24,-7.65,56.56,-0.98,-0.35,0.72
277,-37.33,-6.82,76.32,-0.87,-0.34,0.78
278,-39.19,-7.79,93.63,-0.77,-0.30,0.83
279,-40.53,-13.42,109.57,-0.64,-0.25,0.88
280,-49.76,-11.86,124.18,-0.43,-0.25,0.97
281,-44.60,-18.66,132.73,-0.25,-0.18,1.08
282,-44.37,-21.60,139.54,-0.01,-0.16,1.15
283,-41.42,-25.79,138.58,0.22,-0.12,1.23
284,-38.31,-25.33,133.69,0.45,-0.07,1.28
285,-33.65,-26.29,123.54,0.64,-0.08,1.35
286,-29.15,-20.75,111.21,0.80,0.01,1.39
287,-23.91,-19.04,96.17,0.94,0.02,1.45
288,-17.51,-16.75,81.37,1.08,0.08,1.48
289,-13.08,-11.31,65.74,1.18,0.15,1.54
290,-5.65,-8.02,49.39,1.25,0.14,1.56
291,1.56,-1.48,33.86,1.35,0.18,1.60
292,10.98,6.12,17.31,1.40,0.19,1.61
293,18.15,10.90,0.24,1.41,0.18,1.61
294,23.68,19.80,-17.40,1.41,0.20,1.60
295,35.40,22.52,-37.16,1.38,0.24,1.56
296,39.19,25.11,-55.34,1.30,0.16,1.46
297,43.15,37.02,-70.82,1.24,0.22,1.40
298,47.37,43.07,-85.54,1.10,0.21,1.31
299,44.02,51.80,-99.11,0.97,0.20,1.22
300,45.94,54.95,-110.63,0.77,0.13,1.13
301,43.42,59.63,-120.21,0.59,0.19,1.05
302,43.66,54.38,-129.63,0.41,0.11,0.94
303,43.40,49.95,-138.27,0.20,0.10,0.86
304,42.96,38.76,-143.31,-0.02,0.01,0.86
305,39.82,40.64,-145.54,-0.18,-0.01,0.68
306,35.25,33.66,-145.30,-0.41,-0.08,0.63
307,30.63,30.84,-138.70,-0.57,-0.12,0.59
308,26.29,26.35,-125.22,-0.78,-0.16,0.55
309,19.10,13.83,-106.00,-0.93,-0.17,0.51
310,14.31,5.11,-82.08,-1.04,-0.16,0.50
311,8.49,-2.76,-59.59,-1.09,-0.17,0.51
312,1.27,-5.82,-36.15,-1.07,-0.17,0.49
313,-9.91,-8.41,-12.75,-1.05,-0.16,0.50
314,-21.39,-11.57,8.40,-0.99,-0.15,0.53
315,-32.24,-13.30,26.72,-0.90,-0.15,0.57
316,-41.30,-11.82,42.21,-0.78,-0.15,0.62
317,-48.50,-9.15,56.35,-0.69,-0.16,0.67
318,-55.11,-6.23,69.54,-0.61,-0.15,0.71
319,-62.17,-4.60,82.11,-0.50,-0.15,0.78
320,-68.40,-5.83,93.18,-0.41,-0.13,0.86
321,-73.95,-9.30,102.75,-0.28,-0.10,0.99
322,-85.53,-4.66,110.92,-0.10,-0.09,1.14
323,-69.92,-9.74,118.84,0.10,-0.17,1.29
324,-68.96,-16.99,117.42,0.27,-0.08,1.42
325,-56.78,-29.02,109.13,0.48,-0.10,1.56
326,-40.05,-31.27,94.69,0.71,-0.09,1.64
327,-31.80,-30.55,80.03,0.88,-0.03,1.76
328,-14.15,-30.37,64.73,1.04,-0.00,1.78
329,-2.24,-24.18,47.73,1.16,0.11,1.79
330,9.47,-19.37,28.95,1.26,0.13,1.79
331,20.23,-10.98,9.28,1.34,0.18,1.78
332,29.79,-1.85,-10.50,1.38,0.21,1.75
333,36.55,10.40,-30.73,1.36,0.23,1.69
334,45.45,20.89,-49.94,1.32,0.25,1.63
335,50.56,36.52,-67.79,1.28,0.27,1.54
336,52.87,51.54,-83.80,1.19,0.23,1.42
337,49.40,71.48,-98.60,1.07,0.24,1.31
338,51.63,79.97,-111.89,0.85,0.20,1.20
339,44.98,92.37,-124.63,0.65,0.18,1.02
340,43.15,102.38,-135.31,0.41,0.13,0.92
341,41.73,105.19,-144.93,0.18,0.09,0.84
342,39.92,99.34,-150.95,-0.07,0.02,0.74
343,47.33,81.98,-156.03,-0.36,-0.07,0.64
344,38.09,71.50,-155.77,-0.59,-0.12,0.58
345,42.61,51.37,-149.86,-0.81,-0.18,0.49
346,39.19,32.11,-135.22,-1.03,-0.17,0.41
347,33.47,13.66,-112.63,-1.13,-0.18,0.36
348,27.05,0.26,-86.50,-1.20,-0.16,0.32
349,17.51,-8.98,-59.33,-1.23,-0.13,0.30
350,3.33,-16.08,-30.32,-1.19,-0.09,0.30
351,-12.93,-20.84,-2.11,-1.14,-0.08,0.33
352,-30.90,-23.56,22.03,-1.03,-0.07,0.39
353,-45.66,-24.06,41.82,-0.94,-0.08,0.43
354,-57.95,-21.50,61.05,-0.83,-0.08,0.50
355,-69.66,-15.88,78.03,-0.71,-0.08,0.56
356,-88.87,0.52,94.32,-0.58,-0.09,0.66
357,-88.02,2.26,107.62,-0.50,-0.19,0.78
358,-95.85,2.56,118.12,-0.42,-0.15,0.90
359,-95.54,-3.73,126.49,-0.32,-0.18,1.00
360,-95.54,-8.79,131.68,-0.17,-0.16,1.13
361,-91.22,-17.13,131.13,-0.01,-0.18,1.23
362,-90.15,-29.73,128.09,0.18,-0.14,1.44
363,-78.90,-34.87,120.41,0.41,-0.15,1.57
364,-61.95,-42.06,110.69,0.62,-0.12,1.66
365,-47.15,-49.56,92.67,0.81,-0.09,1.75
366,-32.61,-47.94,71.63,1.01,-0.07,1.84
367,-24.05,-42.32,49.37,1.11,-0.03,1.92
368,-14.93,-35.98,28.69,1.19,-0.02,1.97
369,1.86,-25.44,10.26,1.26,0.03,1.94
370,18.49,-9.02,-6.06,1.31,0.10,1.91
371,33.15,6.78,-23.05,1.31,0.14,1.87
372,40.60,13.24,-41.95,1.27,0.19,1.79
373,44.26,19.42,-61.24,1.23,0.17,1.73
374,46.14,29.30,-79.66,1.16,0.16,1.62
375,48.29,43.07,-96.02,1.05,0.12,1.53
376,51.39,59.22,-110.06,0.92,0.08,1.43
377,57.16,72.35,-123.11,0.73,0.03,1.31
378,58.84,75.51,-135.71,0.52,-0.01,1.17
379,62.05,83.66,-147.37,0.38,-0.05,1.04
380,60.12,87.39,-154.08,0.10,-0.09,0.88
381,60.18,80.75,-158.03,-0.15,-0.08,0.76
382,56.64,76.08,-156.85,-0.40,-0.15,0.63
383,55.34,68.76,-149.02,-0.64,-0.16,0.53
384,52.87,51.50,-136.41,-0.85,-0.17,0.41
385,47.42,38.11,-118.72,-1.02,-0.16,0.31
386,40.37,17.33,-96.38,-1.15,-0.12,0.29
387,30.76,-2.89,-72.20,-1.25,-0.08,0.25
388,18.67,-20.66,-46.50,-1.25,-0.06,0.23
389,4.76,-31.97,-21.02,-1.20,-0.02,0.23
390,-11.57,-40.95,2.05,-1.09,-0.01,0.28
391,-27.80,-46.08,20.78,-0.98,-0.04,0.37
392,-41.86,-49.54,39.48,-0.89,-0.03,0.46
393,-52.82,-46.41,57.27,-0.77,-0.05,0.54
394,-62.61,-40.17,72.40,-0.66,-0.06,0.62
395,-73.39,-30.09,89.05,-0.58,-0.13,0.70
396,-79.48,-26.35,102.75,-0.48,-0.10,0.82
397,-92.26,-11.95,115.15,-0.34,-0.13,0.86
398,-92.26,-7.34,124.67,-0.21,-0.21,1.05
399,-87.18,-5.31,124.09,-0.08,-0.16,1.14
400,-81.11,-10.85,121.89,0.07,-0.23,1.24
