,gyro_x,gyro_y,gyro_z,acce_x,acce_y,acce_z
0,-2.02,-23.47,-6.14,-0.19,-0.27,1.07
1,3.16,-26.31,-5.51,-0.18,-0.28,1.10
2,7.57,-26.73,-4.43,-0.17,-0.28,1.11
3,8.58,-23.94,-3.51,-0.15,-0.25,1.09
4,7.21,-18.49,-2.40,-0.12,-0.24,1.05
5,5.73,-13.25,-2.12,-0.10,-0.23,1.03
6,5.08,-10.15,-2.21,-0.10,-0.21,1.03
7,4.46,-6.75,-2.14,-0.10,-0.22,1.03
8,3.36,-2.70,-1.83,-0.10,-0.22,1.01
9,2.44,0.64,-1.53,-0.10,-0.22,1.00
10,1.27,1.08,-1.83,-0.11,-0.21,0.99
11,0.32,-0.18,-2.06,-0.12,-0.21,0.99
12,-0.89,-0.35,-2.32,-0.12,-0.21,0.99
13,-1.98,-1.62,-2.40,-0.13,-0.21,1.01
14,-2.89,-4.84,-3.02,-0.13,-0.19,1.04
15,-3.08,-7.08,-3.68,-0.12,-0.19,1.05
16,-2.43,-7.79,-3.98,-0.12,-0.20,1.07
17,-1.15,-7.56,-3.88,-0.10,-0.22,1.07
18,-0.44,-3.56,-3.91,-0.08,-0.22,1.09
19,-0.47,1.21,-3.85,-0.06,-0.23,1.10
20,0.53,7.92,-4.03,-0.04,-0.24,1.08
21,1.05,14.75,-4.46,-0.04,-0.24,1.07
22,1.45,20.08,-4.93,-0.06,-0.23,1.05
23,0.92,26.29,-4.98,-0.06,-0.24,1.03
24,-0.44,32.23,-4.75,-0.07,-0.23,1.01
25,-1.54,36.98,-5.13,-0.07,-0.24,1.01
26,-1.53,42.93,-6.00,-0.06,-0.26,1.02
27,-1.10,51.44,-6.90,-0.05,-0.27,1.02
28,-0.87,63.89,-7.47,-0.05,-0.26,1.01
29,-0.40,78.61,-7.79,-0.07,-0.27,1.02
30,1.69,94.08,-7.73,-0.10,-0.30,1.02
31,6.58,105.54,-7.56,-0.17,-0.31,1.02
32,13.31,110.43,-8.17,-0.28,-0.30,1.00
33,18.99,109.85,-10.70,-0.37,-0.32,0.96
34,23.48,102.15,-14.44,-0.52,-0.30,0.91
35,22.79,90.89,-18.67,-0.68,-0.30,0.86
36,19.47,76.15,-20.37,-0.86,-0.34,0.83
37,14.05,58.26,-19.45,-1.02,-0.40,0.83
38,8.90,42.21,-14.93,-1.16,-0.46,0.85
39,7.13,23.85,-5.54,-1.29,-0.50,0.83
40,6.47,0.27,7.69,-1.43,-0.55,0.87
41,7.89,-21.73,27.11,-1.52,-0.61,0.77
42,6.64,-45.11,52.78,-1.60,-0.62,0.67
43,-2.92,-68.85,82.41,-1.62,-0.62,0.56
44,-15.56,-92.47,117.16,-1.59,-0.60,0.45
45,-33.89,-117.98,158.79,-1.50,-0.54,0.40
46,-50.17,-144.20,201.98,-1.30,-0.60,0.40
47,-66.78,-167.80,237.76,-0.98,-0.67,0.45
48,-83.33,-183.40,264.17,-0.59,-0.71,0.51
49,-95.74,-201.19,281.21,-0.19,-0.71,0.57
50,-105.77,-198.99,292.15,0.30,-0.71,0.75
51,-105.30,-189.57,295.59,0.71,-0.75,0.92
52,-105.45,-175.02,292.24,1.18,-0.69,1.14
53,-114.43,-167.59,273.44,1.68,-0.58,1.41
54,-101.47,-145.97,239.45,2.27,-0.51,1.59
55,-103.44,-119.22,186.52,2.88,-0.35,1.88
56,-88.02,-95.59,113.77,3.45,-0.36,2.10
57,-56.84,-79.02,32.15,3.88,-0.36,2.29
58,-23.88,-48.72,-51.05,4.00,-0.38,2.52
59,31.85,-3.56,-128.24,4.00,-0.44,2.47
60,64.49,58.79,-185.73,3.87,-0.45,2.34
61,114.75,152.21,-222.08,3.44,-0.61,2.03
62,151.54,273.10,-244.63,3.02,-0.73,1.73
63,188.34,385.50,-273.19,2.35,-0.93,1.44
64,235.56,480.56,-298.43,1.60,-1.27,1.05
65,278.84,500.26,-321.37,0.63,-1.48,0.64
66,315.48,500.26,-334.06,-0.56,-1.56,-0.05
67,308.69,467.05,-384.63,-1.76,-1.24,-0.65
68,304.47,338.37,-416.95,-2.65,-1.23,-1.24
69,279.05,192.90,-439.62,-3.14,-1.17,-1.44
70,249.24,57.19,-436.66,-3.45,-1.04,-1.75
71,205.45,-58.96,-404.66,-3.68,-0.90,-1.74
72,137.47,-149.36,-342.38,-3.89,-0.79,-1.77
73,61.36,-183.59,-243.21,-4.00,-0.75,-1.80
74,-35.71,-169.92,-121.65,-3.88,-1.03,-1.32
75,-108.44,-116.50,2.43,-3.75,-1.32,-0.96
76,-149.27,-60.85,118.46,-3.60,-1.46,-0.68
77,-162.12,-35.07,219.88,-3.36,-1.61,-0.41
78,-147.47,-62.09,297.71,-3.11,-1.70,-0.24
79,-138.99,-108.53,351.63,-2.67,-1.80,-0.19
80,-133.74,-153.36,384.53,-2.23,-1.78,-0.18
81,-131.74,-185.83,407.11,-1.82,-1.66,-0.12
82,-146.27,-211.68,432.63,-1.45,-1.39,0.07
83,-164.32,-219.05,472.35,-1.00,-1.16,0.28
84,-176.50,-212.34,500.26,-0.39,-1.05,0.45
85,-196.09,-194.43,500.26,0.25,-0.98,0.61
86,-232.44,-183.94,500.26,1.02,-1.04,1.01
87,-255.34,-189.95,500.26,2.16,-0.93,1.46
88,-246.05,-182.26,412.52,3.38,-0.75,2.02
89,-234.26,-170.46,249.98,4.00,-0.57,2.62
90,-175.59,-175.39,117.16,4.00,-0.49,3.01
91,-105.24,-186.61,21.37,4.00,-0.25,3.16
92,-49.77,-195.42,-37.54,3.92,-0.12,2.96
93,1.80,-162.49,-63.88,3.67,-0.13,2.69
94,51.86,-106.14,-78.82,3.50,-0.18,2.60
95,64.99,-54.64,-107.57,3.41,-0.20,2.69
96,91.71,-2.82,-140.60,3.37,-0.33,2.74
97,124.23,44.12,-169.34,3.30,-0.33,2.52
98,136.73,71.18,-203.04,3.02,-0.48,2.61
99,158.67,114.89,-238.32,2.74,-0.64,2.36
100,170.69,167.19,-271.62,2.34,-0.79,2.06
101,187.08,214.64,-306.92,1.75,-0.92,1.67
102,191.34,253.04,-341.04,1.09,-1.09,1.21
103,213.44,236.75,-363.63,0.28,-1.32,0.72
104,233.30,188.66,-396.20,-0.40,-1.36,0.42
105,239.60,153.76,-426.14,-0.88,-1.32,-0.05
106,225.68,133.11,-449.51,-1.42,-1.28,-0.31
107,199.48,112.08,-447.39,-2.12,-1.28,-0.54
108,157.39,78.78,-425.07,-2.67,-1.40,-0.68
109,103.36,43.51,-382.52,-3.16,-1.58,-0.68
110,44.72,25.68,-314.50,-3.59,-1.67,-0.69
111,-8.32,38.09,-212.52,-3.98,-1.68,-0.73
112,-32.49,35.88,-89.44,-4.00,-1.75,-0.51
113,-45.07,27.69,45.56,-4.00,-1.71,-0.48
114,-53.45,-3.77,166.32,-4.00,-1.68,-0.44
115,-53.97,-34.02,262.18,-3.74,-1.69,-0.37
116,-55.83,-74.34,326.24,-3.09,-1.65,-0.29
117,-58.03,-109.40,367.60,-2.41,-1.57,-0.24
118,-66.46,-136.95,390.81,-1.87,-1.48,-0.20
119,-88.55,-140.35,409.04,-1.38,-1.23,-0.21
120,-116.41,-156.63,429.59,-1.08,-1.04,-0.12
121,-143.51,-157.77,471.88,-0.73,-0.86,0.06
122,-166.21,-150.99,500.26,-0.16,-0.72,0.29
123,-203.47,-141.82,500.26,0.65,-0.69,0.60
124,-229.11,-129.47,500.26,1.66,-0.74,0.88
125,-254.70,-127.69,426.81,2.60,-0.73,1.52
126,-249.83,-130.24,320.89,3.48,-0.56,2.10
127,-202.18,-122.85,206.41,4.00,-0.41,2.41
128,-140.24,-103.71,113.92,4.00,-0.24,2.52
129,-76.06,-81.68,54.55,3.87,-0.07,2.44
130,-38.18,-69.31,19.76,3.47,0.12,2.38
131,-22.50,-52.53,-3.47,3.34,0.19,2.32
132,-7.76,-28.73,-30.64,3.43,0.18,2.37
133,2.37,-3.33,-67.59,3.60,0.14,2.47
134,34.37,16.12,-105.94,3.68,-0.05,2.49
135,59.53,38.03,-155.74,3.57,-0.06,2.66
136,95.88,66.63,-200.95,3.24,-0.32,2.53
137,118.82,97.16,-243.77,2.83,-0.51,2.27
138,141.91,142.35,-281.36,2.30,-0.73,1.92
139,157.01,185.92,-314.79,1.68,-0.95,1.52
140,167.54,228.23,-342.70,1.11,-1.18,1.09
141,193.71,238.15,-371.13,0.34,-1.30,0.63
142,162.55,259.11,-402.70,-0.42,-1.20,0.36
143,218.43,178.99,-383.42,-1.45,-1.68,-0.14
144,186.52,152.84,-386.96,-2.21,-1.50,-0.13
145,126.78,177.33,-369.07,-2.68,-1.49,-0.30
146,77.54,183.76,-316.24,-3.13,-1.57,-0.54
147,65.04,157.94,-250.00,-3.59,-1.59,-0.83
148,53.76,84.41,-172.08,-3.93,-1.46,-0.95
149,26.55,23.11,-81.73,-4.00,-1.35,-1.00
150,-10.40,-7.27,10.82,-4.00,-1.31,-1.03
151,-66.61,-6.55,95.85,-3.68,-1.18,-0.93
152,-94.05,-6.79,166.96,-3.16,-1.15,-0.77
153,-113.08,-21.74,213.50,-2.67,-1.15,-0.58
154,-131.95,-25.83,249.97,-2.17,-1.04,-0.45
155,-146.15,-37.21,270.96,-1.75,-0.94,-0.31
156,-164.96,-51.48,286.27,-1.47,-0.88,-0.20
157,-183.91,-66.75,303.10,-1.22,-0.86,0.01
158,-176.00,-90.35,329.34,-1.02,-0.81,0.24
159,-190.63,-84.52,362.47,-0.65,-0.70,0.56
160,-206.12,-86.93,392.40,-0.16,-0.66,0.87
161,-213.85,-95.24,396.73,0.60,-0.68,1.22
162,-219.42,-104.40,371.40,1.46,-0.69,1.71
163,-205.01,-100.85,319.30,2.19,-0.65,2.17
164,-176.82,-88.29,250.23,2.72,-0.56,2.61
165,-143.18,-73.39,174.58,3.08,-0.47,2.85
166,-97.04,-58.89,106.73,3.21,-0.35,2.92
167,-51.82,-50.81,51.50,3.14,-0.26,2.95
168,-14.12,-51.42,8.98,2.96,-0.18,2.94
169,20.20,-57.63,-25.94,2.80,-0.16,2.93
170,42.52,-60.43,-60.41,2.77,-0.15,2.95
171,76.18,-48.41,-91.89,2.78,-0.19,2.89
172,103.66,-27.36,-125.60,2.76,-0.17,2.83
173,128.12,5.92,-160.70,2.69,-0.23,2.65
174,149.98,42.60,-195.02,2.44,-0.31,2.44
175,167.36,65.98,-235.45,2.05,-0.50,2.13
176,192.52,89.16,-270.64,1.50,-0.73,1.73
177,212.82,114.35,-300.66,0.89,-0.88,1.32
178,231.34,138.61,-328.92,0.18,-0.98,0.82
179,244.90,137.82,-355.48,-0.53,-1.04,0.41
180,236.84,117.97,-368.63,-1.52,-1.15,-0.01
181,209.88,87.77,-360.12,-2.28,-1.19,-0.27
182,172.06,62.08,-324.17,-2.82,-1.25,-0.52
183,132.03,57.91,-261.28,-3.16,-1.18,-0.71
184,81.08,54.99,-194.09,-3.40,-1.22,-0.78
185,55.97,27.83,-120.79,-3.64,-1.17,-0.92
186,12.69,33.19,-42.26,-3.65,-1.08,-0.90
187,-32.20,46.89,31.01,-3.57,-1.05,-0.84
188,-61.18,47.56,98.58,-3.41,-0.98,-0.73
189,-79.73,27.94,154.06,-3.08,-0.95,-0.68
190,-94.82,11.30,198.60,-2.63,-0.86,-0.53
191,-105.68,-22.35,229.69,-2.24,-0.78,-0.46
192,-126.93,-47.25,251.24,-1.82,-0.72,-0.37
193,-150.78,-64.46,263.66,-1.45,-0.69,-0.28
194,-172.76,-76.99,276.63,-1.12,-0.69,-0.11
195,-186.63,-82.17,292.15,-0.81,-0.73,0.14
196,-192.29,-81.62,304.64,-0.46,-0.71,0.45
197,-200.46,-75.39,314.66,-0.04,-0.69,0.77
198,-204.34,-62.40,313.45,0.48,-0.65,1.12
199,-204.05,-51.85,299.28,1.00,-0.65,1.50
200,-190.93,-31.73,273.11,1.52,-0.64,1.90
201,-177.77,-10.69,236.79,1.91,-0.58,2.28
202,-148.72,4.08,196.47,2.15,-0.52,2.57
203,-112.20,7.98,155.44,2.30,-0.47,2.79
204,-85.19,9.51,114.76,2.36,-0.38,2.94
205,-48.81,1.97,82.02,2.37,-0.33,3.00
206,-31.60,0.75,43.42,2.42,-0.28,3.09
207,-9.21,-1.74,6.98,2.49,-0.30,3.16
208,27.48,0.60,-27.37,2.53,-0.32,3.25
209,59.07,7.27,-63.79,2.56,-0.35,3.22
210,96.37,21.76,-96.15,2.53,-0.38,3.08
211,128.87,41.73,-128.47,2.41,-0.39,2.90
212,153.45,61.97,-161.91,2.17,-0.44,2.64
213,179.57,78.44,-196.11,1.87,-0.54,2.34
214,206.40,87.54,-228.92,1.48,-0.64,2.00
215,231.31,98.66,-254.89,1.05,-0.76,1.60
216,253.83,99.37,-281.48,0.50,-0.84,1.10
217,272.75,80.63,-310.41,-0.16,-0.90,0.62
218,276.81,49.51,-332.95,-0.88,-0.93,0.04
219,275.24,14.87,-344.21,-1.64,-0.97,-0.37
220,249.66,-17.08,-330.79,-2.33,-1.01,-0.75
221,215.54,-27.51,-285.57,-2.82,-0.90,-1.08
222,146.12,-32.95,-225.16,-3.20,-0.94,-1.17
223,100.11,-36.08,-150.41,-3.43,-0.93,-1.30
224,28.15,0.14,-77.11,-3.49,-0.88,-1.19
225,-35.45,51.92,-7.86,-3.47,-0.92,-1.12
226,-79.05,98.17,57.11,-3.38,-0.90,-0.99
227,-102.38,111.27,113.73,-3.25,-0.91,-0.83
228,-119.76,90.84,162.35,-3.00,-0.86,-0.69
229,-136.23,58.00,201.47,-2.63,-0.80,-0.66
230,-149.50,20.11,231.54,-2.28,-0.77,-0.55
231,-162.43,-27.66,253.01,-1.90,-0.73,-0.31
232,-171.40,-68.99,272.40,-1.40,-0.74,-0.05
233,-187.05,-91.01,287.42,-0.98,-0.73,0.22
234,-186.98,-100.32,301.83,-0.60,-0.74,0.45
235,-199.95,-104.12,308.66,-0.22,-0.74,0.80
236,-192.43,-114.87,318.18,0.21,-0.75,1.07
237,-212.34,-95.13,304.67,0.84,-0.63,1.51
238,-213.69,-114.11,276.00,1.33,-0.70,1.92
239,-191.39,-116.49,238.31,1.87,-0.67,2.37
240,-164.27,-94.29,192.46,2.29,-0.66,2.76
241,-121.80,-69.01,145.07,2.54,-0.64,3.12
242,-77.65,-49.36,99.59,2.65,-0.54,3.26
243,-30.84,-42.34,64.69,2.68,-0.45,3.30
244,2.46,-39.30,25.63,2.69,-0.37,3.28
245,34.15,-41.57,-9.66,2.69,-0.33,3.21
246,58.27,-39.51,-47.45,2.70,-0.28,3.15
247,85.86,-29.34,-83.33,2.71,-0.31,3.00
248,115.30,-12.76,-117.57,2.67,-0.36,2.83
249,145.91,9.31,-154.41,2.57,-0.42,2.57
250,169.97,34.60,-190.15,2.35,-0.47,2.25
251,188.99,59.42,-224.52,2.05,-0.51,1.93
252,206.35,85.19,-256.44,1.63,-0.56,1.54
253,220.70,100.44,-288.34,1.10,-0.61,1.07
254,231.74,104.93,-319.47,0.48,-0.61,0.56
255,236.78,99.27,-348.21,-0.20,-0.67,0.10
256,237.24,84.38,-369.18,-0.95,-0.71,-0.31
257,218.67,70.76,-375.89,-1.71,-0.81,-0.71
258,180.35,54.84,-362.21,-2.47,-0.93,-0.91
259,130.00,41.40,-322.05,-3.14,-1.13,-1.04
260,69.62,28.98,-257.19,-3.78,-1.15,-1.19
261,11.66,21.22,-173.08,-4.00,-1.23,-1.11
262,-23.30,25.19,-72.02,-4.00,-1.19,-0.93
263,-45.57,39.56,26.75,-4.00,-1.11,-0.84
264,-60.46,47.57,110.26,-3.84,-0.96,-0.73
265,-76.14,38.29,171.59,-3.26,-0.82,-0.69
266,-91.08,13.37,222.02,-2.71,-0.68,-0.61
267,-120.84,6.87,259.42,-2.10,-0.51,-0.55
268,-158.17,10.06,282.84,-1.55,-0.47,-0.41
269,-190.23,-0.47,291.62,-1.15,-0.50,-0.18
270,-210.70,-4.64,298.81,-0.76,-0.53,0.10
271,-226.23,-6.21,299.82,-0.45,-0.61,0.34
272,-224.82,-24.64,299.04,-0.18,-0.68,0.83
273,-225.37,-44.67,290.72,0.18,-0.74,1.23
274,-208.18,-49.44,268.85,0.63,-0.71,1.56
275,-201.71,-63.65,238.08,1.04,-0.74,1.99
276,-171.80,-81.94,207.50,1.44,-0.73,2.38
277,-142.27,-86.17,175.27,1.81,-0.74,2.79
278,-118.95,-62.18,136.18,2.14,-0.66,3.05
279,-85.97,-36.53,103.57,2.37,-0.58,3.18
280,-55.76,-23.42,68.35,2.51,-0.53,3.31
281,-21.01,-15.05,31.27,2.62,-0.48,3.36
282,8.64,-9.39,-8.79,2.67,-0.45,3.35
283,44.20,-3.92,-45.98,2.68,-0.44,3.28
284,78.85,3.50,-82.63,2.67,-0.46,3.15
285,113.57,14.34,-122.08,2.58,-0.51,2.95
286,145.04,30.50,-161.45,2.41,-0.58,2.71
287,172.60,55.60,-196.49,2.21,-0.65,2.46
288,198.15,85.16,-228.75,1.89,-0.69,2.07
289,216.47,105.98,-260.95,1.44,-0.75,1.68
290,229.25,139.19,-289.62,0.95,-0.76,1.09
291,239.40,154.31,-318.52,0.23,-0.73,0.55
292,251.97,158.55,-338.61,-0.57,-0.76,-0.03
293,243.62,146.34,-350.49,-1.49,-0.83,-0.45
294,215.01,107.59,-346.41,-2.44,-0.98,-0.83
295,202.12,57.11,-316.35,-3.27,-1.06,-1.19
296,138.23,23.95,-268.98,-3.76,-1.16,-1.30
297,108.40,-19.30,-195.45,-4.00,-1.12,-1.39
298,58.99,-18.52,-106.70,-4.00,-0.90,-1.40
299,8.02,-4.24,-10.44,-4.00,-0.72,-1.38
300,-26.73,8.69,77.51,-3.89,-0.55,-1.34
301,-64.00,12.99,148.41,-3.30,-0.42,-1.19
302,-96.63,15.01,202.92,-2.67,-0.32,-0.99
303,-130.21,20.69,243.69,-2.10,-0.20,-0.81
304,-176.24,14.23,269.80,-1.68,-0.21,-0.58
305,-200.89,-6.15,286.11,-1.27,-0.28,-0.28
306,-220.15,-34.29,292.46,-0.85,-0.39,0.14
307,-222.61,-70.21,284.78,-0.40,-0.53,0.63
308,-213.39,-97.85,262.00,0.06,-0.61,1.11
309,-180.89,-124.15,231.53,0.58,-0.68,1.49
310,-171.39,-120.56,186.08,1.06,-0.66,1.95
311,-139.77,-129.92,150.95,1.34,-0.67,2.35
312,-107.28,-131.25,121.88,1.60,-0.62,2.71
313,-77.10,-122.18,98.06,1.84,-0.58,2.99
314,-47.68,-94.67,76.96,2.07,-0.52,3.16
315,-20.98,-66.58,53.39,2.27,-0.50,3.28
316,14.89,-45.33,23.10,2.41,-0.51,3.32
317,47.47,-33.68,-12.37,2.49,-0.50,3.28
318,84.14,-21.19,-53.56,2.57,-0.50,3.15
319,122.82,-7.68,-95.44,2.54,-0.49,2.93
320,152.79,2.44,-138.14,2.39,-0.53,2.66
321,180.41,22.44,-177.79,2.18,-0.58,2.40
322,200.11,69.05,-207.34,2.02,-0.58,1.92
323,211.88,116.81,-235.91,1.63,-0.59,1.43
324,214.75,155.60,-260.90,1.11,-0.53,0.86
325,210.00,181.16,-283.24,0.48,-0.49,0.26
326,232.03,181.44,-295.60,-0.25,-0.41,-0.28
327,223.16,180.93,-311.62,-1.01,-0.32,-0.74
328,206.24,134.61,-307.76,-2.11,-0.46,-1.21
329,159.19,73.57,-283.13,-2.95,-0.56,-1.35
330,98.78,20.11,-233.85,-3.50,-0.56,-1.49
331,42.73,-30.82,-166.58,-3.79,-0.53,-1.52
332,-3.94,-54.47,-89.83,-3.65,-0.41,-1.44
333,-44.12,-44.95,-15.66,-3.31,-0.33,-1.36
334,-91.40,-15.73,54.92,-2.94,-0.28,-1.16
335,-128.67,10.96,116.90,-2.63,-0.27,-0.94
336,-168.52,29.25,171.34,-2.33,-0.22,-0.72
337,-202.34,36.38,215.42,-2.00,-0.24,-0.48
338,-216.32,21.85,252.32,-1.72,-0.28,-0.26
339,-241.51,10.89,280.20,-1.43,-0.33,0.04
340,-251.79,-9.62,301.01,-1.21,-0.47,0.27
341,-243.28,-30.34,322.99,-0.98,-0.59,0.69
342,-236.82,-61.92,336.66,-0.75,-0.75,0.99
343,-224.98,-87.79,339.50,-0.40,-0.86,1.31
344,-210.93,-112.81,323.89,0.06,-0.99,1.68
345,-193.76,-139.60,280.11,0.63,-1.06,2.22
346,-171.73,-167.92,205.85,1.35,-1.15,2.88
347,-128.02,-166.72,126.47,1.89,-1.12,3.30
348,-71.79,-143.62,54.70,2.13,-1.08,3.56
349,-14.08,-127.11,0.37,2.08,-1.02,3.61
350,34.98,-110.92,-36.21,1.93,-0.92,3.45
351,75.56,-97.25,-59.85,1.79,-0.81,3.19
352,102.23,-76.70,-74.50,1.78,-0.74,3.03
353,124.52,-34.82,-90.03,1.92,-0.68,2.84
354,146.17,7.71,-109.37,2.03,-0.67,2.68
355,169.80,61.36,-129.74,2.07,-0.62,2.52
356,188.81,96.87,-147.83,1.84,-0.65,2.22
357,199.04,140.85,-168.98,1.63,-0.67,2.01
358,198.08,200.00,-187.86,1.28,-0.70,1.63
359,199.88,255.25,-190.60,0.85,-0.67,1.17
360,210.05,293.07,-192.29,0.34,-0.60,0.67
361,219.94,298.63,-201.94,-0.23,-0.51,0.17
362,230.96,273.91,-213.15,-0.85,-0.32,-0.36
363,254.27,231.86,-221.18,-1.57,-0.07,-1.06
364,253.45,146.79,-229.88,-2.33,0.10,-1.50
365,221.19,35.33,-230.73,-2.95,0.29,-1.79
366,169.68,-85.24,-207.19,-3.43,0.18,-1.87
367,97.25,-186.67,-154.15,-3.64,0.18,-1.85
368,23.40,-239.07,-76.67,-3.40,0.19,-1.76
369,-36.75,-227.39,0.40,-2.83,0.16,-1.44
370,-87.98,-182.12,63.24,-2.27,0.16,-1.11
371,-138.67,-107.40,120.15,-1.86,0.13,-0.80
372,-185.30,-35.88,174.31,-1.65,0.05,-0.57
373,-217.33,18.44,220.60,-1.50,-0.00,-0.33
374,-236.32,57.97,254.26,-1.35,-0.12,-0.10
375,-248.78,93.34,278.67,-1.21,-0.17,0.06
376,-257.69,79.94,289.27,-1.15,-0.38,0.53
377,-250.02,35.50,286.82,-0.88,-0.56,0.93
378,-234.02,-29.11,268.95,-0.48,-0.73,1.41
379,-212.87,-87.98,234.66,0.05,-0.86,1.89
380,-187.04,-121.88,182.46,0.59,-0.97,2.35
381,-155.85,-136.72,133.77,1.07,-0.98,2.72
382,-113.88,-134.63,89.83,1.35,-0.97,2.99
383,-70.43,-123.05,56.79,1.49,-0.93,3.13
384,-25.97,-104.46,31.56,1.57,-0.87,3.16
385,7.98,-82.46,17.21,1.63,-0.78,3.13
386,42.27,-60.49,-3.86,1.77,-0.73,3.04
387,73.44,-29.31,-27.37,1.89,-0.71,2.92
388,102.23,8.34,-55.56,1.94,-0.69,2.80
389,124.66,35.98,-82.43,1.86,-0.67,2.67
390,149.62,53.57,-106.79,1.67,-0.65,2.49
391,168.90,66.67,-128.34,1.46,-0.64,2.26
392,187.59,82.40,-145.73,1.25,-0.66,2.02
393,198.15,95.97,-162.37,1.03,-0.65,1.70
394,206.02,121.48,-177.04,0.83,-0.69,1.39
395,216.99,148.41,-189.47,0.56,-0.72,1.08
396,227.80,168.44,-202.53,0.23,-0.71,0.72
397,236.60,180.84,-216.69,-0.16,-0.65,0.31
398,237.71,185.77,-231.62,-0.56,-0.53,-0.14
399,229.85,172.31,-239.71,-1.07,-0.32,-0.58
400,220.12,128.93,-239.88,-1.77,-0.10,-1.04
