,gyro_x,gyro_y,gyro_z,acce_x,acce_y,acce_z
0,6.11,-30.58,32.63,-0.57,-0.31,1.02
1,3.74,-33.24,39.15,-0.54,-0.32,1.01
2,-2.23,-34.09,46.17,-0.50,-0.31,0.99
3,-6.89,-31.74,54.69,-0.48,-0.30,0.96
4,-13.48,-30.23,63.19,-0.47,-0.29,0.94
5,-18.79,-28.35,71.80,-0.43,-0.27,0.94
6,-24.75,-30.11,80.40,-0.41,-0.24,0.95
7,-30.63,-36.20,88.99,-0.35,-0.24,0.96
8,-34.24,-43.13,95.77,-0.29,-0.25,1.00
9,-34.50,-50.49,99.37,-0.17,-0.26,1.00
10,-33.69,-64.72,100.52,-0.06,-0.26,1.14
11,-34.72,-78.53,103.08,0.06,-0.24,1.18
12,-32.21,-85.77,103.21,0.24,-0.23,1.24
13,-33.42,-88.95,98.06,0.45,-0.23,1.35
14,-24.67,-96.47,91.50,0.62,-0.24,1.52
15,-13.56,-90.93,80.44,0.93,-0.27,1.69
16,3.36,-75.71,62.34,1.21,-0.29,1.83
17,18.55,-52.08,34.20,1.54,-0.29,1.96
18,39.62,-10.21,-1.68,1.87,-0.28,1.98
19,64.21,49.02,-40.29,2.05,-0.28,1.91
20,90.23,117.16,-76.03,2.04,-0.31,1.76
21,110.55,185.74,-105.25,1.79,-0.32,1.58
22,126.73,240.56,-133.92,1.33,-0.37,1.29
23,144.21,281.60,-158.35,0.82,-0.42,0.97
24,159.01,294.64,-180.49,0.17,-0.38,0.60
25,165.66,285.77,-198.27,-0.48,-0.36,0.17
26,165.21,260.20,-208.18,-1.19,-0.34,-0.26
27,149.34,204.41,-207.69,-1.98,-0.36,-0.57
28,121.76,125.57,-188.69,-2.70,-0.31,-0.79
29,90.18,35.92,-144.05,-3.28,-0.24,-1.01
30,50.72,-50.15,-79.89,-3.67,-0.22,-1.20
31,3.36,-124.73,-0.69,-3.77,-0.14,-1.21
32,-58.53,-175.80,72.69,-3.55,-0.15,-1.23
33,-114.60,-230.56,130.99,-3.19,-0.39,-0.81
34,-161.48,-236.21,182.02,-2.46,-0.72,-0.35
35,-165.68,-238.14,224.24,-2.00,-0.94,0.14
36,-169.34,-224.73,267.48,-1.47,-0.95,0.58
37,-165.76,-190.90,307.24,-0.92,-0.89,0.78
38,-162.58,-154.60,331.19,-0.37,-0.83,0.96
39,-169.31,-120.76,331.19,0.25,-0.73,1.25
40,-161.51,-111.85,303.77,0.93,-0.65,1.59
41,-151.25,-116.61,262.35,1.46,-0.55,1.99
42,-129.92,-126.46,214.95,2.00,-0.44,2.33
43,-92.05,-129.30,156.29,2.50,-0.32,2.58
44,-56.85,-116.08,96.27,2.92,-0.23,2.73
45,-20.73,-95.68,41.94,3.09,-0.15,2.76
46,18.11,-72.32,-5.05,3.09,-0.14,2.68
47,50.95,-40.20,-41.82,3.00,-0.11,2.58
48,73.65,9.45,-71.82,2.94,-0.09,2.49
49,92.23,79.91,-99.21,2.95,-0.08,2.25
50,104.05,164.47,-132.64,2.98,-0.13,2.12
51,127.39,261.63,-169.56,2.88,-0.26,1.88
52,160.92,347.05,-214.15,2.43,-0.56,1.52
53,198.61,390.29,-258.76,1.51,-0.70,0.97
54,248.11,391.34,-289.37,0.36,-0.74,0.17
55,245.65,343.51,-310.73,-0.88,-0.64,-0.55
56,215.69,247.76,-321.97,-1.98,-0.55,-0.94
57,168.67,129.02,-306.98,-2.72,-0.51,-1.15
58,126.67,14.53,-261.98,-3.38,-0.52,-1.22
59,71.05,-78.31,-192.40,-3.69,-0.53,-1.29
60,15.79,-159.33,-102.46,-3.72,-0.62,-1.16
61,-45.47,-201.88,-16.27,-3.39,-0.71,-1.00
62,-92.03,-224.31,54.11,-2.86,-0.84,-0.65
63,-124.14,-210.53,103.69,-2.24,-1.02,-0.28
64,-140.18,-186.87,134.58,-1.72,-1.11,-0.00
65,-152.24,-165.63,152.95,-1.37,-1.05,0.20
66,-164.84,-151.05,174.20,-1.22,-0.84,0.40
67,-171.92,-129.85,208.32,-1.03,-0.69,0.66
68,-178.02,-123.07,249.62,-0.71,-0.54,1.03
69,-175.82,-124.64,275.85,-0.20,-0.45,1.30
70,-173.59,-128.40,278.60,0.47,-0.40,1.72
71,-165.15,-127.73,243.50,1.29,-0.41,2.21
72,-141.53,-106.52,186.37,2.40,-0.30,2.69
73,-95.13,-70.37,125.30,3.11,-0.21,3.04
74,-40.85,-22.63,63.36,3.33,-0.18,3.27
75,9.28,27.47,19.11,3.22,-0.12,3.26
76,48.73,69.18,-17.77,2.87,-0.00,3.01
77,80.92,121.05,-43.34,2.56,0.02,2.75
78,102.87,168.41,-73.10,2.25,-0.05,2.57
79,125.36,211.28,-98.14,2.02,-0.14,2.35
80,149.98,258.93,-122.67,1.77,-0.34,2.07
81,182.93,276.72,-155.08,1.33,-0.58,1.78
82,211.71,276.53,-199.47,0.76,-0.74,1.22
83,237.39,251.76,-238.32,0.06,-0.73,0.58
84,248.53,224.53,-257.11,-0.61,-0.59,-0.15
85,231.01,200.08,-249.82,-1.35,-0.40,-0.85
86,193.92,163.97,-221.73,-2.16,-0.32,-1.34
87,134.12,103.08,-167.71,-2.82,-0.21,-1.58
88,73.56,21.62,-100.82,-3.24,-0.27,-1.65
89,13.19,-49.07,-33.97,-3.21,-0.44,-1.52
90,-48.66,-99.44,18.53,-2.98,-0.64,-1.36
91,-114.00,-120.18,64.11,-2.65,-0.76,-1.18
92,-155.74,-107.11,114.56,-2.32,-0.92,-0.72
93,-173.88,-102.53,161.39,-2.05,-1.02,-0.36
94,-188.95,-89.18,199.25,-1.74,-1.10,-0.16
95,-212.75,-58.46,231.07,-1.47,-0.99,-0.06
96,-248.49,-20.02,272.95,-1.25,-0.65,0.07
97,-286.44,1.69,321.94,-1.02,-0.43,0.27
98,-307.60,-1.33,365.82,-0.74,-0.43,0.61
99,-306.44,-34.82,388.43,-0.21,-0.55,1.16
100,-284.70,-97.62,350.49,0.83,-0.88,2.12
101,-247.95,-121.76,246.82,2.10,-0.93,2.88
102,-172.66,-126.70,131.71,2.93,-1.00,3.67
103,-84.47,-124.64,37.47,3.11,-0.94,4.00
104,-0.63,-100.58,-19.25,2.86,-0.77,3.91
105,66.21,-65.62,-44.44,2.44,-0.57,3.49
106,108.37,-9.08,-59.53,2.00,-0.44,3.09
107,142.23,16.27,-71.31,1.54,-0.38,2.93
108,155.59,62.49,-85.77,1.41,-0.31,2.49
109,170.75,116.12,-102.17,1.33,-0.37,2.35
110,181.88,156.29,-121.59,1.29,-0.47,2.19
111,201.66,193.62,-141.98,1.19,-0.64,1.92
112,240.03,233.40,-161.88,0.96,-0.71,1.46
113,260.15,241.91,-194.03,0.40,-0.66,0.86
114,278.90,220.40,-218.87,-0.21,-0.53,0.10
115,275.86,195.73,-240.44,-0.75,-0.41,-0.54
116,249.62,176.72,-248.89,-1.29,-0.22,-1.06
117,235.24,154.99,-240.37,-1.87,-0.14,-1.42
118,190.34,96.46,-213.45,-2.45,-0.14,-1.57
119,138.00,26.09,-170.26,-2.79,-0.11,-1.71
120,70.03,-26.93,-117.27,-2.87,-0.24,-1.72
121,-15.33,-62.31,-69.04,-2.95,-0.43,-1.69
122,-93.74,-92.82,-6.58,-3.03,-0.64,-1.44
123,-153.16,-109.37,53.80,-3.00,-0.83,-1.03
124,-169.83,-118.03,117.83,-2.71,-1.01,-0.49
125,-185.85,-130.96,174.44,-2.43,-1.05,-0.14
126,-193.94,-142.72,227.05,-2.08,-0.89,0.09
127,-214.92,-151.62,271.31,-1.69,-0.67,0.29
128,-236.72,-153.98,308.75,-1.13,-0.56,0.57
129,-246.34,-179.16,322.00,-0.56,-0.57,1.02
130,-236.03,-216.00,309.80,0.34,-0.59,1.65
131,-214.95,-239.85,253.45,1.25,-0.68,2.31
132,-180.11,-223.63,177.15,2.28,-0.50,2.62
133,-134.05,-182.64,100.15,2.90,-0.47,3.27
134,-80.05,-117.16,36.63,3.19,-0.41,3.42
135,-17.53,-52.40,-6.52,3.05,-0.40,3.46
136,45.45,12.43,-35.25,2.71,-0.29,3.22
137,97.97,71.63,-53.79,2.39,-0.20,2.89
138,129.10,139.97,-68.26,2.08,-0.16,2.60
139,145.48,189.36,-90.29,1.82,-0.14,2.30
140,160.66,231.76,-115.10,1.69,-0.23,2.03
141,185.25,257.83,-146.32,1.43,-0.41,1.75
142,221.16,248.58,-190.15,0.92,-0.63,1.39
143,268.55,214.96,-237.02,0.25,-0.82,0.99
144,297.04,178.81,-274.75,-0.41,-0.81,0.24
145,310.32,139.65,-295.91,-0.99,-0.69,-0.35
146,296.60,94.55,-311.48,-1.54,-0.67,-0.90
147,262.00,46.41,-306.67,-2.00,-0.71,-1.23
148,202.29,8.95,-284.17,-2.45,-0.83,-1.37
149,127.21,-15.71,-234.78,-2.92,-0.94,-1.31
150,48.34,-29.95,-158.98,-3.38,-1.05,-1.21
151,-12.99,-36.09,-61.16,-3.66,-1.04,-1.13
152,-60.70,-6.69,49.33,-3.67,-1.01,-1.01
153,-86.31,-13.69,147.16,-3.41,-0.97,-0.86
154,-117.33,-16.60,222.34,-2.90,-1.02,-0.63
155,-143.31,-50.63,273.88,-2.34,-1.08,-0.29
156,-175.44,-75.37,305.45,-1.82,-0.96,-0.25
157,-194.98,-104.52,325.01,-1.42,-0.92,-0.03
158,-209.76,-144.58,346.12,-1.10,-0.79,0.32
159,-218.11,-179.30,376.90,-0.79,-0.58,0.57
160,-224.60,-203.80,406.00,-0.33,-0.64,0.87
161,-225.63,-215.25,416.41,0.51,-0.67,1.26
162,-233.40,-209.74,374.82,1.49,-0.80,1.73
163,-233.73,-204.32,299.05,2.56,-0.71,2.58
164,-169.44,-163.15,197.92,3.49,-0.53,2.95
165,-119.24,-130.18,99.10,3.90,-0.46,3.28
166,-58.73,-93.37,29.21,3.86,-0.27,3.34
167,3.16,-50.18,-19.40,3.49,-0.04,3.02
168,47.59,-1.28,-41.59,3.10,0.14,2.78
169,69.15,42.82,-66.79,2.77,0.20,2.51
170,93.74,70.03,-94.64,2.56,0.23,2.41
171,89.04,105.13,-139.05,2.57,0.16,2.39
172,142.41,97.76,-174.08,2.32,-0.13,2.25
173,179.50,98.64,-228.08,2.00,-0.30,2.10
174,218.12,113.88,-269.80,1.48,-0.62,1.74
175,243.50,144.31,-300.40,0.81,-0.82,1.29
176,251.22,152.76,-325.11,0.01,-0.97,0.73
177,232.99,164.08,-343.25,-0.72,-1.03,0.22
178,200.61,195.45,-342.92,-1.58,-1.16,-0.36
179,168.84,204.37,-312.92,-2.64,-1.18,-0.83
180,125.45,161.66,-247.77,-3.71,-1.18,-0.88
181,35.25,122.79,-166.90,-4.00,-1.17,-0.97
182,8.03,72.82,-68.47,-4.00,-1.22,-1.10
183,-14.98,23.42,14.27,-4.00,-1.09,-1.03
184,-33.30,-25.07,82.06,-3.85,-1.01,-0.93
185,-55.54,-63.30,137.56,-3.34,-0.85,-0.98
186,-79.54,-92.23,188.17,-2.75,-0.72,-0.85
187,-104.37,-95.28,220.32,-2.13,-0.68,-0.67
188,-142.08,-85.79,238.31,-1.57,-0.59,-0.39
189,-169.50,-70.18,249.65,-1.15,-0.49,-0.18
190,-191.02,-64.66,262.24,-0.80,-0.33,0.10
191,-206.14,-69.36,274.66,-0.46,-0.23,0.43
192,-207.10,-90.70,277.31,-0.01,-0.21,0.82
193,-197.66,-110.06,263.48,0.51,-0.28,1.38
194,-187.08,-119.27,237.11,1.09,-0.29,1.87
195,-164.09,-117.16,198.41,1.72,-0.23,2.36
196,-121.10,-103.48,145.56,2.27,-0.14,2.68
197,-89.88,-90.56,91.88,2.54,-0.06,2.87
198,-54.98,-72.20,46.23,2.59,-0.01,3.11
199,-20.69,-54.67,10.08,2.53,0.06,3.07
200,13.19,-36.34,-18.99,2.46,0.09,3.04
201,43.01,-16.53,-46.38,2.38,0.07,2.97
202,72.29,4.37,-73.91,2.32,0.05,2.87
203,91.48,26.03,-107.56,2.33,0.01,2.76
204,117.08,68.56,-142.00,2.25,0.03,2.56
205,148.92,99.16,-180.50,2.04,-0.19,2.16
206,162.96,113.71,-232.06,1.57,-0.43,2.02
207,198.50,142.69,-263.71,0.97,-0.78,1.60
208,217.19,188.67,-288.99,0.33,-0.87,1.12
209,225.98,218.29,-302.32,-0.46,-0.93,0.52
210,235.37,217.11,-295.05,-1.43,-1.02,-0.12
211,216.40,203.50,-277.24,-2.41,-1.05,-0.62
212,141.69,190.79,-237.40,-3.32,-1.11,-0.87
213,110.75,138.93,-159.77,-4.00,-1.11,-1.27
214,59.97,76.89,-72.85,-4.00,-1.06,-1.40
215,29.39,5.82,13.76,-4.00,-1.00,-1.50
216,-2.24,-45.08,85.82,-3.79,-0.91,-1.47
217,-32.56,-81.60,145.10,-3.22,-0.78,-1.50
218,-66.34,-108.11,195.68,-2.58,-0.57,-1.39
219,-106.41,-116.32,229.95,-1.94,-0.50,-1.17
220,-155.05,-98.37,246.18,-1.33,-0.39,-0.98
221,-202.82,-81.19,246.17,-0.90,-0.39,-0.70
222,-237.85,-61.24,248.66,-0.59,-0.39,-0.34
223,-256.92,-59.11,254.06,-0.46,-0.39,0.10
224,-266.24,-65.56,262.90,-0.18,-0.41,0.56
225,-260.02,-80.96,262.98,0.23,-0.46,1.10
226,-249.13,-94.05,241.24,0.79,-0.48,1.57
227,-226.32,-117.88,203.37,1.35,-0.53,2.32
228,-195.04,-122.14,158.43,2.00,-0.45,2.80
229,-157.48,-109.27,100.73,2.48,-0.37,3.20
230,-106.52,-87.74,55.24,2.75,-0.38,3.42
231,-61.01,-56.11,16.35,2.82,-0.32,3.56
232,-18.96,-28.44,-15.04,2.71,-0.27,3.58
233,24.53,-5.62,-44.85,2.55,-0.25,3.50
234,60.76,17.77,-72.08,2.46,-0.25,3.40
235,92.21,42.93,-100.38,2.36,-0.28,3.24
236,119.16,76.85,-132.66,2.35,-0.33,3.05
237,145.28,107.92,-171.88,2.19,-0.46,2.86
238,199.89,153.79,-209.89,1.85,-0.61,2.26
239,227.10,153.60,-257.28,1.18,-0.85,1.88
240,272.47,155.21,-282.29,0.53,-1.10,1.30
241,271.40,185.50,-305.77,-0.17,-1.17,0.73
242,274.26,219.15,-312.27,-0.99,-1.09,-0.03
243,269.25,226.67,-298.49,-1.99,-0.97,-0.69
244,238.92,204.08,-262.87,-2.90,-0.91,-1.41
245,189.76,151.15,-209.85,-3.60,-0.92,-1.74
246,127.71,86.79,-152.92,-4.00,-0.96,-1.98
247,44.96,47.11,-83.21,-4.00,-1.04,-2.03
248,-17.56,17.28,-5.39,-4.00,-1.04,-2.00
249,-54.50,9.02,58.27,-3.79,-1.03,-1.83
250,-86.92,-5.42,113.34,-3.26,-0.94,-1.68
251,-112.21,-27.13,159.31,-2.75,-0.82,-1.53
252,-157.98,-14.02,189.71,-2.19,-0.59,-1.44
253,-198.81,-0.79,208.69,-1.75,-0.54,-1.31
254,-244.61,5.80,220.18,-1.35,-0.55,-0.95
255,-271.97,1.15,222.81,-1.04,-0.54,-0.58
256,-287.79,-16.41,223.65,-0.79,-0.56,-0.17
257,-287.47,-42.15,224.41,-0.57,-0.55,0.28
258,-284.29,-64.93,221.16,-0.28,-0.55,0.78
259,-281.91,-89.54,207.68,0.14,-0.61,1.51
260,-265.88,-103.88,183.22,0.61,-0.73,2.20
261,-232.11,-113.48,157.50,0.98,-0.77,2.92
262,-180.06,-122.23,136.82,1.31,-0.82,3.50
263,-129.39,-99.59,118.06,1.64,-0.76,3.84
264,-84.17,-64.38,98.06,1.83,-0.70,4.00
265,-38.34,-36.78,79.42,1.89,-0.62,4.00
266,8.82,-25.13,57.01,1.89,-0.58,4.00
267,55.65,-18.52,32.49,1.89,-0.57,4.00
268,98.43,-12.69,6.26,1.89,-0.53,3.81
269,138.89,-5.30,-22.38,1.85,-0.51,3.57
270,180.14,9.31,-46.29,1.84,-0.51,3.33
271,214.35,15.62,-74.20,1.72,-0.49,2.97
272,241.36,26.44,-100.24,1.64,-0.52,2.51
273,263.71,36.24,-125.15,1.47,-0.59,1.93
274,282.52,58.29,-147.83,1.12,-0.52,1.40
275,298.21,42.17,-172.31,0.68,-0.50,0.87
276,296.70,49.76,-197.92,0.40,-0.40,0.41
277,283.66,70.64,-214.06,-0.07,-0.26,-0.29
278,282.95,56.32,-223.82,-0.78,-0.31,-0.86
279,259.54,17.33,-228.24,-1.41,-0.25,-1.22
280,229.60,-22.61,-221.62,-1.98,-0.34,-1.63
281,178.15,-44.12,-207.57,-2.39,-0.36,-1.80
282,105.79,-54.11,-177.42,-2.83,-0.59,-1.79
283,40.61,-63.97,-123.11,-3.24,-0.65,-1.72
284,-19.86,-55.91,-60.34,-3.41,-0.73,-1.50
285,-46.46,-54.27,2.75,-3.35,-0.79,-1.26
286,-69.56,-48.73,54.20,-3.06,-0.70,-1.05
287,-95.13,-44.79,97.39,-2.79,-0.59,-0.83
288,-113.21,-62.38,134.82,-2.50,-0.50,-0.62
289,-148.11,-70.34,163.05,-2.04,-0.40,-0.35
290,-170.56,-75.21,180.64,-1.60,-0.42,-0.09
291,-188.82,-80.72,189.95,-1.19,-0.40,0.27
292,-197.05,-90.46,196.27,-0.80,-0.42,0.74
293,-200.32,-101.97,202.35,-0.47,-0.39,1.00
294,-204.27,-104.27,206.53,-0.08,-0.39,1.40
295,-194.60,-114.43,197.91,0.39,-0.43,1.78
296,-183.08,-115.80,177.76,0.90,-0.45,2.24
297,-154.17,-97.57,150.61,1.44,-0.44,2.59
298,-126.37,-65.63,120.35,1.90,-0.44,2.90
299,-91.79,-21.65,95.37,2.21,-0.42,3.14
300,-47.51,7.44,66.00,2.31,-0.34,3.25
301,-8.24,25.63,35.37,2.35,-0.26,3.25
302,28.26,42.00,4.21,2.37,-0.21,3.18
303,64.26,52.29,-27.11,2.37,-0.19,3.06
304,96.69,59.15,-60.95,2.36,-0.18,2.93
305,128.18,63.83,-98.27,2.27,-0.16,2.75
306,151.80,78.41,-134.14,2.14,-0.16,2.47
307,164.61,99.98,-171.07,1.96,-0.18,2.13
308,192.24,134.46,-205.59,1.71,-0.27,1.80
309,217.28,165.42,-239.04,1.22,-0.41,1.40
310,238.99,192.90,-259.08,0.54,-0.54,0.85
311,234.03,216.64,-265.33,-0.42,-0.54,0.34
312,254.67,196.92,-263.56,-1.52,-0.78,-0.23
313,222.43,152.61,-258.96,-2.53,-0.86,-0.57
314,183.15,98.26,-223.97,-3.36,-0.93,-1.02
315,145.18,66.18,-162.67,-3.94,-0.86,-1.43
316,102.26,9.02,-91.79,-4.00,-0.73,-1.69
317,45.24,-32.58,-25.45,-4.00,-0.61,-1.78
318,-1.57,-55.88,33.97,-3.65,-0.49,-1.77
319,-42.84,-63.51,79.25,-3.09,-0.39,-1.64
320,-88.55,-72.81,123.36,-2.64,-0.22,-1.42
321,-116.40,-81.62,161.25,-2.12,-0.16,-1.28
322,-165.53,-75.71,186.08,-1.59,-0.06,-0.99
323,-208.20,-49.89,197.59,-1.18,-0.12,-0.63
324,-231.98,-48.32,207.88,-0.93,-0.23,-0.25
325,-240.32,-48.11,215.82,-0.66,-0.28,0.02
326,-246.87,-66.52,217.71,-0.35,-0.47,0.73
327,-241.60,-85.53,208.72,0.04,-0.51,1.18
328,-228.47,-102.50,185.28,0.48,-0.58,1.72
329,-205.19,-107.18,156.90,0.94,-0.62,2.26
330,-170.95,-96.66,128.17,1.36,-0.61,2.73
331,-134.31,-86.05,101.53,1.62,-0.58,3.11
332,-90.90,-68.47,78.41,1.84,-0.49,3.34
333,-50.41,-46.43,51.71,2.00,-0.44,3.48
334,-12.03,-33.28,23.68,2.11,-0.40,3.54
335,23.33,-21.98,-8.96,2.17,-0.36,3.52
336,60.21,-12.79,-42.93,2.22,-0.36,3.45
337,99.21,-4.66,-78.63,2.22,-0.36,3.31
338,131.50,7.85,-110.55,2.20,-0.37,3.13
339,161.39,43.51,-140.47,2.16,-0.40,2.77
340,182.47,80.14,-174.43,1.96,-0.45,2.38
341,195.83,120.08,-209.91,1.71,-0.50,1.79
342,221.05,150.58,-237.86,1.11,-0.44,1.33
343,240.61,166.26,-255.44,0.32,-0.54,0.65
344,252.76,151.42,-264.73,-0.67,-0.61,0.11
345,240.37,117.51,-265.82,-1.58,-0.64,-0.44
346,200.29,84.63,-248.08,-2.34,-0.69,-0.92
347,170.34,41.85,-217.71,-3.01,-0.69,-1.33
348,144.73,6.90,-178.92,-3.52,-0.72,-1.62
349,72.08,-30.70,-116.87,-3.88,-0.61,-1.81
350,13.97,-45.15,-43.40,-3.86,-0.40,-1.95
351,-34.84,-35.79,21.34,-3.61,-0.38,-1.92
352,-87.45,-12.21,73.77,-3.08,-0.20,-1.68
353,-122.85,-18.24,118.29,-2.79,-0.19,-1.55
354,-168.82,-21.25,160.24,-2.35,-0.14,-1.32
355,-210.06,-23.54,191.18,-1.89,-0.20,-0.94
356,-249.63,-17.51,213.97,-1.48,-0.26,-0.53
357,-270.63,-36.72,228.23,-1.21,-0.43,-0.07
358,-274.79,-39.37,239.01,-0.81,-0.52,0.30
359,-270.43,-62.69,235.45,-0.46,-0.73,1.01
360,-259.28,-84.44,216.61,-0.03,-0.83,1.51
361,-244.23,-104.75,187.98,0.37,-0.89,2.05
362,-220.70,-114.87,159.44,0.73,-0.94,2.57
363,-184.73,-124.52,137.13,1.05,-0.96,3.11
364,-138.81,-130.41,113.05,1.41,-0.96,3.55
365,-92.49,-124.47,87.16,1.83,-0.94,3.85
366,-41.86,-108.08,51.25,2.24,-0.94,4.00
367,9.45,-84.37,9.98,2.60,-0.92,4.00
368,64.82,-50.47,-29.16,2.84,-0.83,4.00
369,113.95,-10.78,-67.73,2.92,-0.71,3.73
370,154.70,40.98,-103.71,2.89,-0.62,3.40
371,180.98,91.51,-135.82,2.70,-0.56,3.04
372,191.62,146.72,-164.55,2.44,-0.51,2.37
373,214.49,197.73,-188.47,1.99,-0.55,1.95
374,251.65,218.64,-204.18,1.36,-0.57,1.27
375,269.36,205.63,-234.46,0.61,-0.65,0.81
376,277.53,183.24,-251.62,-0.17,-0.72,0.14
377,275.33,159.69,-251.88,-1.03,-0.61,-0.54
378,259.47,115.62,-240.11,-1.88,-0.50,-1.17
379,229.79,47.47,-219.11,-2.59,-0.34,-1.71
380,189.28,-11.83,-194.18,-2.93,-0.20,-2.06
381,141.62,-50.99,-160.81,-3.13,-0.00,-2.37
382,78.03,-65.54,-120.37,-3.25,0.13,-2.49
383,-2.17,-64.50,-73.77,-3.28,0.15,-2.43
384,-73.54,-43.69,-25.89,-3.21,0.12,-2.21
385,-136.31,-4.95,26.21,-3.03,0.04,-1.81
386,-177.24,5.37,74.43,-2.90,-0.10,-1.42
387,-220.70,8.72,121.37,-2.68,-0.18,-1.07
388,-257.77,15.59,168.43,-2.37,-0.23,-0.74
389,-297.21,19.66,208.15,-2.04,-0.23,-0.55
390,-328.29,11.92,238.66,-1.68,-0.38,-0.07
391,-335.57,-18.21,264.95,-1.37,-0.60,0.36
392,-332.69,-39.27,276.12,-0.95,-0.78,0.78
393,-327.10,-55.07,264.23,-0.48,-0.92,1.22
394,-310.14,-67.47,228.41,0.01,-1.06,1.70
395,-272.93,-80.79,185.05,0.39,-1.21,2.30
396,-217.97,-88.52,139.94,0.68,-1.33,2.78
397,-158.70,-91.11,100.82,0.88,-1.36,3.13
398,-105.11,-84.81,69.73,1.02,-1.36,3.40
399,-52.78,-75.37,48.03,1.13,-1.33,3.53
400,-12.34,-63.59,33.30,1.26,-1.24,3.56
