,gyro_x,gyro_y,gyro_z,acce_x,acce_y,acce_z
0,2.89,-3.85,1.66,-0.12,-0.14,1.02
1,1.50,-2.79,-0.52,-0.12,-0.12,1.02
2,-0.02,-2.34,-2.11,-0.12,-0.12,1.02
3,-0.93,-2.09,-3.95,-0.12,-0.12,1.01
4,-1.79,0.56,-6.47,-0.10,-0.13,1.01
5,-2.02,4.21,-8.52,-0.11,-0.11,1.01
6,-2.34,10.96,-9.69,-0.11,-0.13,1.00
7,-3.11,20.47,-9.83,-0.11,-0.14,0.98
8,-4.24,31.86,-8.85,-0.11,-0.14,0.98
9,-5.25,44.89,-8.26,-0.11,-0.15,0.99
10,-5.59,57.77,-7.65,-0.12,-0.16,1.01
11,-4.73,72.27,-6.08,-0.15,-0.16,1.03
12,-2.92,86.32,-3.94,-0.19,-0.19,1.03
13,-1.08,94.84,-2.95,-0.27,-0.22,1.03
14,4.23,93.53,-1.60,-0.40,-0.23,1.02
15,4.41,85.59,-0.96,-0.49,-0.22,1.02
16,3.42,71.04,0.69,-0.60,-0.22,1.00
17,1.92,51.28,3.18,-0.68,-0.22,1.01
18,2.09,25.73,6.46,-0.73,-0.25,1.04
19,4.98,-0.14,11.42,-0.73,-0.27,1.06
20,8.09,-24.12,17.68,-0.72,-0.27,1.08
21,10.43,-39.92,24.69,-0.64,-0.27,1.08
22,11.60,-49.07,30.73,-0.54,-0.27,1.11
23,11.25,-50.02,36.52,-0.42,-0.23,1.06
24,15.10,-56.18,41.59,-0.35,-0.30,1.32
25,23.30,-53.69,44.99,-0.20,-0.35,1.33
26,32.93,-43.59,45.47,-0.01,-0.38,1.45
27,43.65,-25.11,45.04,0.16,-0.39,1.53
28,55.57,-7.77,40.29,0.28,-0.38,1.57
29,67.79,9.59,33.68,0.40,-0.36,1.60
30,79.18,30.03,24.09,0.50,-0.31,1.54
31,90.09,52.24,14.89,0.54,-0.26,1.49
32,96.99,77.36,3.01,0.60,-0.20,1.36
33,101.27,104.50,-11.02,0.62,-0.14,1.21
34,103.63,130.66,-25.66,0.60,-0.10,1.05
35,102.37,144.95,-43.88,0.49,-0.08,0.90
36,104.05,149.79,-63.94,0.30,-0.09,0.75
37,106.87,150.18,-88.11,0.03,-0.13,0.53
38,111.45,141.30,-113.15,-0.31,-0.12,0.30
39,117.10,120.35,-139.10,-0.72,-0.15,0.07
40,117.39,86.81,-154.37,-1.19,-0.21,-0.15
41,95.31,34.29,-156.15,-1.70,-0.26,-0.33
42,66.05,-10.18,-134.73,-2.11,-0.27,-0.45
43,48.67,-38.38,-94.44,-2.43,-0.28,-0.59
44,-26.85,-71.45,-30.61,-2.67,-0.22,-0.40
45,-71.94,-87.91,36.29,-2.73,-0.40,-0.36
46,-105.25,-101.16,106.21,-2.76,-0.62,-0.24
47,-133.34,-113.50,182.27,-2.33,-0.73,0.19
48,-129.56,-113.31,243.24,-1.90,-0.78,0.46
49,-132.35,-103.65,286.40,-1.37,-0.64,0.57
50,-140.46,-83.36,316.85,-0.87,-0.50,0.59
51,-159.30,-60.35,341.98,-0.47,-0.34,0.68
52,-175.57,-63.28,361.80,-0.12,-0.25,0.88
53,-182.84,-81.69,368.20,0.40,-0.23,1.11
54,-190.26,-99.15,340.95,1.09,-0.20,1.54
55,-176.31,-122.53,267.77,1.98,-0.16,2.07
56,-149.95,-125.15,165.36,2.96,0.02,2.41
57,-116.69,-117.88,70.09,3.53,-0.00,3.04
58,-51.73,-109.05,-7.85,3.65,-0.05,3.24
59,3.08,-70.46,-58.89,3.49,-0.06,3.20
60,42.89,-19.76,-95.07,3.15,-0.03,2.93
61,74.50,35.65,-130.90,2.80,-0.08,2.73
62,93.08,94.15,-158.20,2.56,-0.13,2.51
63,112.79,175.04,-185.21,2.43,-0.20,2.28
64,130.60,263.89,-216.38,2.18,-0.42,1.96
65,163.94,313.56,-254.35,1.51,-0.68,1.64
66,189.68,326.98,-293.77,0.67,-0.87,1.16
67,207.91,305.65,-326.98,-0.21,-0.92,0.49
68,215.94,270.85,-350.89,-1.00,-0.85,-0.33
69,206.00,208.70,-365.18,-1.84,-0.80,-0.99
70,175.85,109.69,-351.88,-2.75,-0.72,-1.44
71,134.63,12.12,-306.58,-3.38,-0.65,-1.64
72,70.23,-95.91,-232.81,-3.98,-0.79,-1.69
73,5.71,-155.80,-133.10,-4.00,-0.74,-1.71
74,-63.25,-166.15,-17.42,-3.97,-0.84,-1.64
75,-117.80,-134.29,93.56,-3.51,-1.02,-1.24
76,-144.82,-116.75,179.57,-2.99,-1.17,-0.65
77,-158.72,-109.94,239.83,-2.41,-1.23,-0.23
78,-156.55,-98.72,289.95,-2.00,-1.05,-0.04
79,-165.10,-79.34,334.08,-1.58,-0.74,0.00
80,-185.85,-56.32,373.89,-1.16,-0.49,0.13
81,-222.29,-68.14,409.77,-0.77,-0.37,0.35
82,-266.11,-87.94,433.89,-0.20,-0.37,0.69
83,-284.15,-123.50,412.41,0.77,-0.59,1.32
84,-274.29,-173.57,325.92,2.19,-0.56,2.30
85,-228.21,-178.90,190.82,3.35,-0.50,3.03
86,-142.72,-168.15,57.31,3.69,-0.61,3.99
87,-41.73,-144.17,-30.43,3.44,-0.60,4.00
88,44.17,-93.85,-75.63,2.93,-0.48,3.76
89,86.46,-20.14,-92.09,2.45,-0.39,3.28
90,104.73,41.66,-97.97,2.14,-0.31,2.85
91,109.73,114.61,-104.72,1.99,-0.35,2.60
92,125.42,183.51,-123.16,1.90,-0.50,2.48
93,162.37,233.85,-157.15,1.64,-0.78,2.38
94,205.45,258.87,-198.56,1.10,-0.94,1.99
95,243.18,259.69,-231.57,0.36,-0.96,1.28
96,264.52,245.73,-252.82,-0.34,-0.84,0.39
97,261.98,218.29,-265.97,-1.02,-0.67,-0.46
98,242.47,171.36,-263.48,-1.65,-0.40,-1.11
99,211.53,120.67,-243.50,-2.22,-0.22,-1.59
100,158.98,59.97,-201.05,-2.77,-0.11,-1.92
101,101.57,-4.20,-140.34,-3.12,-0.06,-2.06
102,21.73,-65.45,-74.76,-3.21,-0.24,-2.08
103,-68.52,-116.99,-16.14,-3.24,-0.35,-1.99
104,-150.93,-134.72,46.81,-3.12,-0.70,-1.47
105,-193.68,-146.20,112.73,-3.00,-0.99,-0.91
106,-201.34,-180.50,175.85,-2.77,-1.19,-0.34
107,-188.49,-202.47,223.30,-2.42,-1.30,0.09
108,-185.31,-199.91,265.33,-2.02,-1.14,0.31
109,-195.68,-178.84,319.65,-1.62,-0.85,0.44
110,-220.41,-169.37,373.88,-1.03,-0.66,0.78
111,-236.47,-189.39,405.37,-0.23,-0.72,1.25
112,-239.95,-203.63,386.53,0.97,-0.70,1.86
113,-234.66,-189.94,316.66,2.12,-0.55,2.42
114,-195.13,-178.87,214.27,2.91,-0.60,3.15
115,-126.79,-162.09,113.36,3.33,-0.56,3.70
116,-44.95,-131.50,37.82,3.41,-0.50,3.89
117,23.25,-82.35,-12.02,3.29,-0.40,3.69
118,88.75,-25.94,-43.16,3.02,-0.36,3.42
119,134.75,31.98,-67.27,2.73,-0.38,3.16
120,166.41,98.70,-84.23,2.52,-0.39,2.92
121,192.05,175.68,-102.20,2.44,-0.44,2.72
122,226.75,237.28,-131.37,2.24,-0.53,2.50
123,269.13,286.29,-170.98,1.90,-0.74,2.15
124,318.98,318.03,-206.09,1.26,-0.75,1.58
125,347.91,313.92,-218.79,0.32,-0.76,0.71
126,340.52,300.85,-207.44,-0.63,-0.64,-0.29
127,300.14,239.89,-190.92,-1.46,-0.40,-1.06
128,242.41,146.11,-179.71,-2.18,-0.32,-1.55
129,181.82,55.04,-163.01,-2.73,-0.38,-1.84
130,111.31,-15.62,-130.66,-3.16,-0.36,-1.94
131,39.19,-65.27,-82.14,-3.34,-0.41,-1.99
132,-29.27,-87.68,-37.27,-3.23,-0.44,-1.87
133,-82.35,-107.74,6.58,-3.02,-0.51,-1.59
134,-124.73,-121.01,48.03,-2.80,-0.53,-1.24
135,-163.24,-133.47,89.83,-2.58,-0.57,-0.91
136,-186.38,-139.48,128.46,-2.26,-0.64,-0.56
137,-206.06,-146.15,159.76,-1.86,-0.61,-0.17
138,-217.07,-151.54,189.37,-1.48,-0.49,-0.01
139,-233.22,-170.67,223.31,-1.10,-0.40,0.31
140,-245.56,-196.46,256.61,-0.59,-0.28,0.52
141,-253.71,-212.06,270.18,0.12,-0.20,0.88
142,-259.27,-236.52,252.40,0.89,-0.29,1.45
143,-245.18,-252.14,201.76,1.70,-0.35,2.09
144,-203.59,-233.95,136.64,2.50,-0.49,2.74
145,-129.59,-170.15,70.20,3.12,-0.58,3.34
146,-44.05,-90.93,11.68,3.30,-0.58,3.59
147,26.00,-18.27,-31.48,3.21,-0.50,3.48
148,84.23,60.03,-64.00,2.88,-0.44,3.17
149,120.20,121.02,-81.11,2.51,-0.33,2.86
150,137.02,186.61,-97.01,2.25,-0.34,2.67
151,146.84,253.73,-114.99,2.06,-0.39,2.44
152,167.30,306.50,-149.04,1.70,-0.57,2.22
153,208.58,326.69,-192.09,1.03,-0.80,1.86
154,255.50,313.53,-229.77,0.14,-0.93,1.29
155,283.36,260.43,-255.92,-0.78,-0.88,0.52
156,285.16,185.59,-268.38,-1.52,-0.69,-0.24
157,261.79,103.24,-270.78,-1.99,-0.46,-0.82
158,223.39,32.87,-256.66,-2.26,-0.33,-1.19
159,182.24,-23.91,-224.29,-2.48,-0.21,-1.56
160,113.63,-78.55,-174.21,-2.85,-0.18,-1.87
161,28.64,-85.56,-96.31,-3.14,-0.21,-1.83
162,-45.71,-100.47,-8.95,-3.37,-0.41,-1.77
163,-128.26,-97.30,73.88,-3.27,-0.58,-1.48
164,-169.88,-91.39,140.46,-2.84,-0.85,-1.00
165,-202.35,-102.69,190.17,-2.39,-1.00,-0.40
166,-221.97,-107.48,233.54,-2.00,-0.88,-0.14
167,-229.59,-116.84,284.09,-1.63,-0.77,0.06
168,-244.00,-119.47,333.10,-1.16,-0.62,0.31
169,-258.31,-134.32,361.18,-0.57,-0.56,0.57
170,-269.04,-153.27,350.63,0.33,-0.70,1.37
171,-260.11,-164.67,310.09,1.28,-0.76,2.10
172,-221.02,-156.73,243.15,2.17,-0.68,2.75
173,-164.69,-133.22,152.85,2.64,-0.68,3.32
174,-98.85,-97.83,85.30,2.83,-0.65,3.66
175,-25.98,-60.84,36.92,2.73,-0.56,3.69
176,27.30,-19.21,3.37,2.56,-0.48,3.49
177,70.12,19.28,-21.16,2.33,-0.41,3.21
178,94.53,68.24,-42.61,2.16,-0.37,2.93
179,109.91,120.50,-54.11,2.07,-0.36,2.79
180,129.19,173.50,-67.47,2.06,-0.39,2.66
181,149.45,213.16,-91.91,2.05,-0.49,2.35
182,187.56,240.79,-133.83,1.75,-0.55,1.97
183,229.77,232.32,-186.18,1.05,-0.58,1.32
184,262.75,201.59,-231.02,0.23,-0.54,0.50
185,270.27,159.02,-260.41,-0.58,-0.41,-0.29
186,243.88,121.44,-271.91,-1.28,-0.27,-0.91
187,212.67,79.59,-257.63,-1.92,-0.20,-1.32
188,162.67,16.38,-223.54,-2.51,-0.18,-1.62
189,90.43,-45.89,-171.04,-3.19,-0.47,-1.73
190,3.27,-96.27,-92.40,-3.56,-0.53,-1.69
191,-63.21,-127.53,-8.60,-3.59,-0.80,-1.47
192,-110.35,-116.46,72.63,-3.33,-0.98,-1.09
193,-143.40,-99.71,143.57,-2.96,-1.05,-0.71
194,-158.15,-96.03,198.56,-2.59,-1.07,-0.37
195,-160.67,-106.11,230.15,-2.15,-1.04,-0.24
196,-170.87,-103.68,250.02,-1.72,-0.94,-0.10
197,-190.75,-95.79,278.53,-1.35,-0.68,0.09
198,-213.83,-93.48,322.06,-1.06,-0.58,0.35
199,-232.75,-107.59,355.95,-0.47,-0.53,0.69
200,-238.73,-143.76,349.45,0.37,-0.66,1.21
201,-221.53,-165.47,318.02,1.44,-0.69,1.85
202,-195.11,-170.90,248.58,2.37,-0.62,2.45
203,-147.77,-152.84,163.31,3.08,-0.54,2.91
204,-97.08,-122.26,85.47,3.44,-0.45,3.17
205,-36.95,-75.89,27.01,3.48,-0.40,3.18
206,5.85,-29.40,-10.02,3.27,-0.28,3.08
207,44.79,3.66,-35.91,3.02,-0.22,2.92
208,69.25,31.74,-60.11,2.87,-0.20,2.84
209,90.76,64.46,-85.56,2.82,-0.23,2.73
210,118.63,103.91,-115.86,2.81,-0.30,2.59
211,136.49,161.94,-160.26,2.67,-0.31,2.32
212,173.01,156.14,-206.17,2.07,-0.53,2.01
213,212.52,149.71,-264.56,1.42,-0.64,1.60
214,239.44,134.11,-313.05,0.64,-0.79,1.03
215,248.78,130.38,-351.40,-0.04,-0.94,0.53
216,239.13,126.32,-363.60,-1.07,-1.07,-0.04
217,196.41,135.08,-345.40,-2.07,-0.98,-0.51
218,156.93,97.48,-286.99,-3.26,-1.11,-0.61
219,112.50,56.61,-191.56,-4.00,-1.11,-0.95
220,68.60,11.16,-90.03,-4.00,-1.03,-1.07
221,35.76,-21.18,-10.69,-4.00,-0.98,-1.09
222,-0.38,-34.70,52.81,-3.78,-0.89,-1.07
223,-38.12,-37.89,106.27,-3.35,-0.78,-0.92
224,-65.33,-44.93,153.02,-2.94,-0.62,-0.98
225,-94.47,-55.79,188.31,-2.49,-0.55,-0.83
226,-124.06,-62.11,208.60,-2.04,-0.49,-0.75
227,-151.95,-73.16,219.42,-1.67,-0.52,-0.58
228,-178.63,-87.65,229.51,-1.42,-0.50,-0.35
229,-202.49,-87.47,256.17,-1.16,-0.47,-0.07
230,-213.76,-101.30,289.77,-0.79,-0.48,0.30
231,-224.17,-108.99,312.02,-0.21,-0.57,0.69
232,-227.82,-115.85,323.25,0.49,-0.60,1.20
233,-228.05,-128.87,308.50,1.44,-0.64,1.82
234,-215.08,-118.87,254.03,2.48,-0.60,2.42
235,-176.20,-91.74,182.98,3.20,-0.54,2.87
236,-130.81,-66.27,106.92,3.49,-0.50,3.23
237,-74.26,-39.98,47.60,3.50,-0.43,3.37
238,-16.89,-16.21,3.02,3.30,-0.39,3.38
239,19.51,3.05,-30.21,3.07,-0.38,3.26
240,43.57,20.11,-57.57,2.92,-0.38,3.13
241,78.81,44.23,-84.92,2.84,-0.41,3.08
242,112.15,68.76,-117.56,2.74,-0.53,2.95
243,141.30,94.29,-160.84,2.52,-0.62,2.73
244,172.37,110.96,-207.56,2.10,-0.75,2.64
245,210.18,119.79,-257.53,1.42,-0.89,2.10
246,246.27,107.65,-290.12,0.63,-1.03,1.67
247,257.88,108.52,-319.18,-0.14,-1.17,1.18
248,258.21,127.02,-323.97,-0.92,-1.17,0.64
249,249.97,168.03,-308.47,-1.87,-1.05,-0.03
250,214.41,167.31,-276.35,-2.97,-1.04,-0.56
251,181.98,121.76,-208.55,-3.93,-1.10,-0.98
252,140.44,76.40,-122.95,-4.00,-0.90,-1.27
253,95.68,36.24,-42.63,-4.00,-0.72,-1.45
254,42.21,13.33,32.43,-4.00,-0.68,-1.56
255,4.38,-6.47,94.96,-3.77,-0.56,-1.50
256,-29.47,-20.58,141.91,-3.27,-0.45,-1.57
257,-69.18,-38.11,179.66,-2.65,-0.28,-1.47
258,-115.22,-41.94,204.08,-2.10,-0.19,-1.35
259,-159.42,-37.92,221.63,-1.66,-0.16,-1.16
260,-191.36,-43.34,230.44,-1.32,-0.26,-0.89
261,-222.87,-47.68,232.31,-1.01,-0.39,-0.54
262,-240.03,-59.62,232.84,-0.73,-0.44,-0.16
263,-257.98,-62.32,236.14,-0.41,-0.53,0.28
264,-257.97,-76.60,244.81,-0.09,-0.64,0.75
265,-245.73,-84.70,252.24,0.37,-0.72,1.28
266,-235.69,-87.97,251.16,0.96,-0.86,1.91
267,-223.59,-80.14,231.73,1.65,-0.89,2.45
268,-188.31,-67.73,197.22,2.24,-0.89,2.97
269,-149.25,-53.51,152.08,2.66,-0.85,3.34
270,-100.49,-37.11,104.53,2.87,-0.82,3.59
271,-49.21,-21.33,58.90,2.93,-0.75,3.71
272,-6.18,-11.63,19.18,2.92,-0.71,3.69
273,35.25,-8.78,-17.48,2.86,-0.67,3.60
274,75.97,-4.06,-53.16,2.83,-0.71,3.47
275,112.93,5.24,-87.13,2.75,-0.69,3.34
276,149.31,22.60,-118.61,2.68,-0.70,3.12
277,177.80,54.14,-153.53,2.56,-0.71,2.84
278,204.17,95.01,-190.63,2.34,-0.71,2.45
279,238.89,119.13,-229.65,1.92,-0.78,1.89
280,265.97,179.50,-270.15,1.40,-0.81,1.31
281,291.11,162.96,-292.52,0.23,-0.89,0.64
282,288.40,132.06,-308.14,-0.61,-0.97,0.15
283,268.53,107.68,-304.55,-1.51,-0.98,-0.34
284,228.21,98.03,-287.44,-2.42,-0.96,-0.78
285,190.75,76.47,-248.52,-3.33,-0.87,-1.20
286,151.07,34.29,-186.61,-3.99,-0.84,-1.46
287,105.39,-2.89,-121.89,-4.00,-0.72,-1.63
288,52.09,-20.26,-55.05,-4.00,-0.66,-1.66
289,4.43,-19.88,4.53,-4.00,-0.52,-1.59
290,-36.11,-16.70,56.21,-3.72,-0.44,-1.44
291,-69.08,-15.68,106.56,-3.32,-0.31,-1.37
292,-104.14,-11.18,150.32,-2.88,-0.17,-1.25
293,-139.45,-17.47,184.52,-2.41,-0.15,-1.06
294,-170.56,-28.67,205.56,-1.92,-0.20,-0.80
295,-196.92,-40.49,210.24,-1.46,-0.34,-0.45
296,-211.68,-54.44,205.94,-0.99,-0.48,-0.01
297,-218.82,-56.89,201.85,-0.66,-0.55,0.36
298,-210.69,-63.79,208.81,-0.40,-0.61,0.71
299,-213.63,-62.49,213.85,-0.02,-0.57,1.10
300,-206.49,-70.58,225.22,0.40,-0.66,1.54
301,-191.25,-72.43,225.74,0.98,-0.71,2.05
302,-180.20,-59.62,210.32,1.62,-0.79,2.54
303,-149.68,-36.03,184.15,2.15,-0.81,3.03
304,-112.44,-12.69,145.91,2.50,-0.77,3.31
305,-73.97,5.10,103.18,2.69,-0.73,3.50
306,-29.19,14.46,62.09,2.73,-0.70,3.57
307,8.27,11.68,21.11,2.70,-0.65,3.57
308,44.87,6.21,-18.58,2.67,-0.63,3.48
309,83.04,2.09,-55.30,2.61,-0.64,3.38
310,120.98,6.26,-89.11,2.53,-0.63,3.18
311,155.36,18.76,-122.43,2.40,-0.66,2.93
312,181.36,38.11,-157.86,2.20,-0.67,2.60
313,211.80,54.89,-191.68,1.88,-0.71,2.22
314,232.38,87.79,-223.68,1.58,-0.74,1.85
315,250.14,117.47,-251.33,1.00,-0.74,1.29
316,259.44,130.32,-276.23,0.25,-0.74,0.72
317,254.40,120.24,-286.12,-0.67,-0.79,0.21
318,229.27,111.76,-281.65,-1.70,-0.64,-0.32
319,215.27,30.03,-242.09,-3.03,-0.81,-0.84
320,176.98,-21.76,-200.69,-3.70,-0.66,-0.95
321,139.92,-55.94,-144.95,-4.00,-0.62,-1.19
322,82.20,-41.10,-83.30,-3.99,-0.50,-1.32
323,43.36,-24.41,-22.08,-3.85,-0.40,-1.32
324,2.75,-9.02,25.95,-3.56,-0.27,-1.35
325,-30.41,16.38,74.52,-3.24,-0.09,-1.27
326,-64.03,34.52,123.71,-2.99,0.01,-1.21
327,-97.13,42.05,166.61,-2.61,0.07,-1.16
328,-127.71,29.94,196.37,-2.18,0.08,-0.98
329,-158.20,3.66,209.19,-1.70,-0.02,-0.72
330,-181.37,-16.26,208.09,-1.20,-0.16,-0.37
331,-197.63,-39.13,201.83,-0.78,-0.28,0.04
332,-199.56,-56.27,198.96,-0.41,-0.37,0.50
333,-191.33,-72.44,197.65,-0.06,-0.47,0.93
334,-182.63,-81.07,193.79,0.42,-0.51,1.41
335,-173.11,-77.39,185.53,0.89,-0.56,1.83
336,-159.02,-73.08,166.38,1.37,-0.62,2.31
337,-137.54,-50.73,143.57,1.73,-0.66,2.66
338,-105.42,-31.59,118.85,1.96,-0.68,3.02
339,-71.88,-16.18,89.62,2.13,-0.67,3.25
340,-36.73,-2.67,59.02,2.22,-0.66,3.39
341,0.56,3.04,27.48,2.25,-0.62,3.42
342,34.66,6.02,-4.96,2.25,-0.60,3.35
343,64.17,11.79,-36.81,2.22,-0.59,3.23
344,95.91,22.89,-68.03,2.14,-0.58,3.05
345,129.62,41.05,-97.02,2.02,-0.59,2.87
346,158.26,60.00,-124.99,1.81,-0.60,2.54
347,177.65,84.21,-153.73,1.56,-0.58,2.09
348,200.32,114.03,-183.68,1.21,-0.54,1.62
349,216.41,126.20,-213.37,0.66,-0.49,1.16
350,228.67,129.02,-238.18,-0.01,-0.47,0.65
351,230.66,120.32,-253.69,-0.78,-0.40,0.09
352,221.31,94.12,-254.21,-1.62,-0.38,-0.45
353,189.13,61.68,-247.80,-2.49,-0.40,-0.87
354,153.04,-2.75,-206.87,-3.50,-0.54,-1.14
355,105.62,-74.21,-144.99,-4.00,-0.48,-1.18
356,80.14,-128.27,-70.87,-4.00,-0.41,-1.25
357,43.56,-123.11,-7.21,-3.66,-0.23,-1.28
358,15.50,-113.22,50.52,-3.13,-0.12,-1.09
359,-26.96,-71.86,98.72,-2.51,0.14,-1.28
360,-67.71,-49.51,137.95,-2.12,0.25,-1.16
361,-122.55,0.29,171.57,-1.65,0.32,-1.00
362,-168.75,30.95,197.50,-1.34,0.24,-0.75
363,-201.86,41.86,212.89,-0.98,0.10,-0.39
364,-222.47,29.30,209.59,-0.60,-0.07,0.03
365,-226.96,17.27,195.69,-0.23,-0.25,0.53
366,-219.98,-1.28,176.79,-0.01,-0.36,1.01
367,-204.84,-29.57,160.17,0.19,-0.49,1.46
368,-187.86,-60.87,143.51,0.44,-0.60,1.89
369,-163.77,-88.32,129.98,0.69,-0.67,2.29
370,-133.83,-109.33,114.99,1.00,-0.77,2.76
371,-100.70,-115.63,96.72,1.37,-0.83,3.18
372,-60.43,-112.84,74.17,1.73,-0.86,3.50
373,-18.99,-92.63,42.89,2.07,-0.87,3.65
374,22.38,-61.30,7.79,2.30,-0.83,3.67
375,61.51,-23.89,-25.68,2.38,-0.78,3.56
376,96.50,9.01,-58.92,2.31,-0.72,3.33
377,127.28,35.28,-88.27,2.11,-0.65,3.03
378,153.31,70.43,-110.89,1.94,-0.61,2.66
379,172.92,100.66,-132.26,1.68,-0.56,2.19
380,187.30,133.54,-152.29,1.45,-0.49,1.75
381,203.88,150.47,-168.96,1.05,-0.40,1.27
382,218.66,170.06,-185.98,0.60,-0.25,0.68
383,231.83,158.61,-199.30,-0.04,-0.16,0.03
384,220.64,133.74,-216.08,-0.80,-0.03,-0.57
385,197.08,87.48,-223.21,-1.47,0.05,-1.06
386,164.87,33.95,-216.98,-2.12,0.11,-1.54
387,120.58,-32.21,-199.16,-2.72,0.08,-1.76
388,68.75,-91.48,-162.12,-3.04,0.13,-1.85
389,14.89,-131.45,-113.34,-3.09,0.14,-1.75
390,-31.37,-130.53,-59.88,-2.80,0.11,-1.49
391,-69.89,-98.50,-5.85,-2.48,0.10,-1.16
392,-109.73,-58.44,42.18,-2.22,0.10,-0.94
393,-149.66,-0.38,90.67,-1.97,0.09,-0.73
394,-194.75,59.25,130.17,-1.78,0.06,-0.52
395,-229.51,98.87,163.30,-1.63,-0.05,-0.29
396,-263.24,121.51,188.90,-1.48,-0.14,0.02
397,-282.70,124.31,203.51,-1.24,-0.34,0.43
398,-292.46,113.19,200.17,-0.92,-0.53,0.85
399,-273.28,79.45,184.70,-0.60,-0.78,1.49
400,-242.56,50.24,159.71,-0.31,-0.92,1.94
