,gyro_x,gyro_y,gyro_z,acce_x,acce_y,acce_z
0,34.35,-188.72,-17.48,-2.61,-0.71,1.01
1,39.57,-216.11,28.06,-2.25,-0.74,0.97
2,37.33,-239.88,68.14,-1.89,-0.69,0.89
3,41.05,-195.86,114.76,-1.24,-0.76,0.59
4,45.15,-212.60,143.82,-1.27,-0.69,0.74
5,41.34,-207.05,170.89,-1.02,-0.65,0.70
6,37.19,-200.63,194.11,-0.83,-0.56,0.67
7,31.30,-175.51,220.08,-0.60,-0.47,0.63
8,22.92,-162.84,243.76,-0.46,-0.46,0.66
9,19.98,-160.21,264.56,-0.27,-0.44,0.75
10,22.52,-157.60,282.69,-0.01,-0.43,0.77
11,27.25,-159.74,291.66,0.30,-0.43,0.80
12,33.47,-161.25,285.27,0.68,-0.40,0.81
13,30.58,-165.62,261.98,1.19,-0.29,0.78
14,16.84,-159.98,223.24,1.72,-0.20,0.85
15,6.56,-160.44,169.62,2.18,-0.13,0.94
16,-0.96,-157.92,114.73,2.57,0.03,1.04
17,0.79,-145.86,57.42,2.79,0.12,1.13
18,17.04,-118.99,9.69,2.90,0.20,1.15
19,16.35,-80.23,-29.47,3.00,0.35,1.08
20,15.77,-20.69,-65.37,3.07,0.39,0.99
21,10.00,58.87,-95.37,3.00,0.45,0.92
22,-0.79,129.80,-120.14,2.84,0.45,0.87
23,-10.72,188.50,-143.68,2.53,0.39,0.74
24,-13.94,239.07,-162.21,2.35,0.29,0.64
25,-22.35,303.66,-185.85,2.05,0.02,0.60
26,-36.89,369.15,-200.06,1.55,-0.20,0.53
27,-39.22,418.98,-222.20,0.99,-0.42,0.45
28,-38.70,433.85,-243.36,0.30,-0.54,0.33
29,-23.16,424.38,-258.95,-0.50,-0.65,0.22
30,-20.43,364.06,-270.55,-1.25,-0.70,0.17
31,-20.41,280.69,-263.10,-2.06,-0.82,0.33
32,-19.53,171.94,-234.31,-2.72,-0.90,0.52
33,-10.03,49.79,-190.66,-3.17,-0.92,0.79
34,-14.37,-37.71,-134.21,-3.21,-0.90,0.98
35,15.73,-130.02,-79.37,-3.12,-0.91,0.96
36,19.79,-179.30,-24.12,-2.80,-0.86,0.94
37,29.74,-203.27,29.53,-2.37,-0.89,0.81
38,34.69,-212.06,74.73,-2.02,-0.89,0.72
39,39.27,-210.79,113.76,-1.70,-0.85,0.72
40,36.69,-198.00,147.97,-1.38,-0.80,0.66
41,29.16,-168.15,182.34,-1.13,-0.69,0.68
42,16.64,-145.15,216.49,-0.98,-0.58,0.71
43,12.64,-137.73,246.89,-0.87,-0.55,0.82
44,22.35,-145.37,276.29,-0.70,-0.54,0.91
45,28.31,-164.72,301.18,-0.46,-0.57,0.96
46,42.08,-169.37,322.50,-0.05,-0.57,0.95
47,39.92,-178.21,330.49,0.42,-0.53,0.94
48,46.15,-185.08,311.18,1.12,-0.52,0.89
49,28.02,-191.94,269.30,1.80,-0.44,0.95
50,11.40,-188.27,209.02,2.58,-0.23,1.02
51,-2.32,-170.03,139.79,3.11,-0.01,1.10
52,19.39,-136.73,69.36,3.43,0.05,1.18
53,9.42,-108.37,11.39,3.46,0.18,1.19
54,10.24,-53.40,-30.99,3.42,0.49,1.08
55,13.11,40.27,-62.89,3.26,0.57,0.96
56,16.44,114.37,-90.85,2.91,0.52,0.90
57,8.44,174.73,-102.27,2.66,0.44,0.89
58,17.19,168.81,-143.11,2.32,0.11,0.89
59,-2.99,242.95,-159.57,2.40,0.17,0.79
60,-24.14,336.15,-178.58,2.23,0.05,0.61
61,-18.75,387.36,-214.76,1.62,-0.36,0.55
62,-11.71,416.34,-252.18,0.96,-0.62,0.41
63,-2.24,399.54,-281.74,0.18,-0.62,0.25
64,1.04,397.65,-299.42,-0.61,-0.63,0.15
65,-0.49,332.49,-305.34,-1.51,-0.75,-0.02
66,-4.44,244.21,-286.27,-2.30,-0.84,0.17
67,-39.85,162.99,-233.83,-2.65,-0.69,0.32
68,-19.95,38.85,-183.82,-3.40,-1.14,0.73
69,-11.60,-72.20,-123.42,-3.47,-0.97,0.92
70,12.85,-153.25,-64.08,-3.20,-0.98,0.92
71,26.21,-180.02,-2.50,-2.79,-0.95,0.80
72,30.05,-183.10,52.75,-2.36,-0.93,0.73
73,29.85,-197.42,96.58,-2.01,-0.92,0.67
74,34.23,-198.00,130.60,-1.62,-0.93,0.59
75,27.53,-180.82,163.53,-1.23,-0.84,0.60
76,17.82,-162.35,191.97,-1.04,-0.70,0.62
77,3.44,-147.94,217.92,-0.88,-0.58,0.69
78,2.32,-130.14,245.27,-0.73,-0.50,0.76
79,0.14,-131.66,273.37,-0.62,-0.43,0.87
80,9.77,-143.13,296.18,-0.43,-0.46,0.95
81,19.04,-162.35,311.16,-0.08,-0.49,1.04
82,20.37,-175.48,314.02,0.47,-0.40,1.02
83,28.40,-195.94,288.53,1.10,-0.48,1.04
84,20.15,-205.48,248.09,1.90,-0.39,1.16
85,10.73,-213.62,188.61,2.62,-0.18,1.20
86,7.08,-200.69,118.03,3.11,0.01,1.23
87,2.03,-179.01,54.11,3.36,0.26,1.23
88,28.53,-126.20,0.99,3.49,0.35,1.16
89,22.11,-60.56,-46.85,3.34,0.53,1.12
90,29.86,36.35,-73.11,3.18,0.63,1.07
91,27.47,107.19,-91.42,2.86,0.66,0.80
92,14.98,172.58,-118.56,2.55,0.51,0.88
93,10.41,217.92,-128.34,2.38,0.36,0.78
94,-4.56,277.48,-147.97,2.31,0.25,0.65
95,-20.17,352.79,-179.04,2.12,-0.08,0.57
96,-25.47,396.95,-225.05,1.53,-0.34,0.55
97,-26.47,426.02,-259.33,0.82,-0.73,0.47
98,-5.98,402.92,-281.39,-0.19,-0.84,0.34
99,-4.67,385.10,-287.05,-1.12,-0.93,0.18
100,-24.60,348.12,-268.05,-2.11,-0.98,0.18
101,-32.90,223.18,-230.03,-2.98,-1.01,0.39
102,3.63,122.06,-181.31,-3.35,-1.22,0.74
103,-12.67,25.76,-124.82,-3.49,-0.90,0.80
104,24.81,-85.39,-69.89,-3.55,-0.83,0.86
105,38.75,-149.57,-11.95,-3.17,-0.78,0.70
106,41.15,-187.04,43.50,-2.65,-0.61,0.42
107,36.37,-210.56,87.97,-2.18,-0.61,0.33
108,24.15,-211.77,126.92,-1.68,-0.57,0.24
109,11.89,-196.63,161.16,-1.33,-0.52,0.24
110,-6.21,-167.31,194.38,-1.03,-0.45,0.35
111,-20.92,-139.37,228.61,-0.84,-0.32,0.53
112,-21.02,-141.19,250.69,-0.68,-0.29,0.70
113,-21.48,-154.00,271.10,-0.44,-0.30,0.84
114,-0.23,-168.43,284.34,-0.18,-0.41,0.96
115,11.16,-188.32,284.96,0.20,-0.42,1.06
116,19.37,-204.53,269.16,0.65,-0.42,1.13
117,14.81,-222.11,226.56,1.33,-0.42,1.24
118,8.00,-234.79,171.76,1.96,-0.40,1.39
119,15.80,-224.09,116.32,2.52,-0.31,1.45
120,17.28,-210.49,56.06,2.72,-0.14,1.61
121,25.68,-158.76,15.28,2.97,0.09,1.56
122,27.77,-100.89,-18.23,2.95,0.20,1.50
123,41.73,-5.77,-38.02,2.94,0.31,1.29
124,22.64,89.19,-54.05,2.77,0.43,1.23
125,21.98,156.44,-74.63,2.53,0.38,1.15
126,15.45,205.60,-90.72,2.36,0.35,1.01
127,24.44,233.25,-115.16,2.13,0.16,0.99
128,4.00,306.41,-128.34,2.06,0.12,0.85
129,1.11,352.44,-149.08,1.61,-0.03,0.75
130,-6.40,385.19,-173.07,1.17,-0.19,0.64
131,-3.79,387.94,-203.73,0.48,-0.33,0.54
132,5.16,376.18,-227.01,-0.23,-0.36,0.34
133,14.26,322.81,-246.27,-1.06,-0.43,0.20
134,22.24,223.11,-252.03,-1.84,-0.45,0.16
135,21.53,151.69,-235.36,-2.37,-0.50,0.30
136,25.36,72.21,-204.06,-2.67,-0.50,0.32
137,25.45,6.56,-164.15,-2.81,-0.51,0.33
138,23.60,-62.75,-119.68,-2.84,-0.52,0.36
139,0.03,-72.32,-61.66,-2.56,-0.55,0.38
140,-6.90,-107.15,-14.58,-2.44,-0.60,0.29
141,-12.61,-121.47,28.23,-2.16,-0.77,0.30
142,-19.80,-135.10,72.20,-1.86,-0.77,0.55
143,-17.82,-138.49,110.76,-1.55,-0.70,0.59
144,-26.32,-135.24,143.05,-1.31,-0.62,0.71
145,-29.94,-131.30,174.69,-1.18,-0.53,0.79
146,-25.42,-138.38,202.08,-1.02,-0.48,0.87
147,-25.59,-146.35,229.30,-0.81,-0.36,0.98
148,-7.45,-186.47,240.35,-0.53,-0.35,1.10
149,-0.76,-183.02,257.05,-0.18,-0.50,1.19
150,19.15,-196.47,253.88,0.37,-0.41,1.27
151,6.79,-189.24,237.97,0.88,-0.41,1.36
152,12.52,-195.44,199.88,1.44,-0.32,1.42
153,7.50,-188.43,160.79,1.96,-0.18,1.48
154,7.07,-165.34,118.79,2.28,-0.07,1.54
155,7.04,-156.67,72.79,2.48,0.00,1.52
156,9.77,-90.73,35.95,2.76,0.21,1.47
157,16.29,-53.11,-0.98,2.79,0.22,1.42
158,17.10,33.28,-27.44,2.70,0.34,1.26
159,28.43,93.13,-47.68,2.42,0.36,1.13
160,20.56,138.17,-58.58,2.26,0.44,1.10
161,15.74,179.60,-79.65,2.02,0.32,1.05
162,4.14,219.30,-96.11,1.72,0.25,0.95
163,-7.73,276.82,-113.50,1.61,0.21,0.81
164,-8.73,299.40,-143.22,1.27,0.02,0.63
165,-17.74,310.56,-174.27,0.81,-0.06,0.47
166,-15.33,311.56,-205.66,0.27,-0.21,0.35
167,-14.14,299.19,-228.31,-0.36,-0.27,0.19
168,-18.47,288.64,-231.27,-1.02,-0.40,0.09
169,-29.10,244.00,-221.04,-1.55,-0.48,0.04
170,-27.47,189.94,-199.28,-2.02,-0.63,0.01
171,-36.99,130.78,-167.37,-2.32,-0.68,0.03
172,-55.71,94.79,-125.85,-2.35,-0.69,0.05
173,-75.34,53.50,-81.62,-2.36,-0.73,0.09
174,-81.71,33.79,-33.22,-2.30,-0.84,0.14
175,-97.89,22.40,15.95,-2.24,-0.95,0.18
176,-99.76,-9.28,59.63,-2.11,-0.92,0.18
177,-108.18,-41.94,96.92,-1.93,-0.90,0.23
178,-112.90,-58.58,130.66,-1.66,-0.79,0.32
179,-118.49,-58.69,162.40,-1.46,-0.72,0.46
180,-113.69,-71.28,193.57,-1.40,-0.68,0.70
181,-96.70,-99.37,222.98,-1.32,-0.68,0.96
182,-65.02,-136.11,244.93,-1.06,-0.76,1.23
183,-40.43,-167.53,259.73,-0.62,-0.75,1.45
184,-23.53,-194.43,257.47,-0.08,-0.86,1.60
185,-11.45,-210.35,239.91,0.62,-0.78,1.79
186,5.36,-231.19,198.50,1.19,-0.80,1.98
187,14.53,-261.88,147.19,1.59,-0.68,2.20
188,20.37,-259.28,107.16,1.89,-0.62,2.28
189,33.76,-238.73,73.51,2.06,-0.37,2.19
190,43.01,-207.56,46.56,2.17,-0.15,2.08
191,44.50,-159.45,25.33,2.21,0.07,1.80
192,101.19,-92.63,9.92,2.21,0.18,1.64
193,52.20,-17.88,-7.22,2.18,0.24,1.58
194,60.70,48.23,-15.10,2.13,0.29,1.49
195,63.13,100.08,-46.38,1.88,0.24,1.49
196,55.33,149.05,-54.38,1.92,0.17,1.36
197,42.15,168.41,-76.24,1.73,0.22,1.30
198,41.15,194.40,-95.50,1.52,0.02,1.11
199,36.67,216.63,-113.13,1.16,0.01,0.84
200,34.08,234.05,-133.31,0.77,-0.04,0.61
201,44.00,239.80,-155.80,0.34,-0.10,0.41
202,19.33,258.79,-164.96,-0.06,0.03,0.20
203,18.85,246.96,-170.85,-0.51,-0.02,-0.01
204,8.92,213.36,-180.43,-1.13,-0.09,-0.04
205,-9.53,163.59,-174.47,-1.55,-0.14,-0.08
206,10.99,68.56,-168.49,-2.01,-0.30,-0.01
207,12.66,9.79,-142.78,-2.33,-0.53,0.09
208,7.98,-62.60,-112.50,-2.49,-0.59,0.21
209,-0.73,-109.76,-69.95,-2.47,-0.61,0.27
210,-8.93,-158.67,-29.04,-2.31,-0.66,0.30
211,-7.08,-181.63,7.54,-1.98,-0.69,0.35
212,-5.95,-188.50,39.59,-1.66,-0.65,0.42
213,-1.11,-178.20,68.63,-1.41,-0.57,0.47
214,-7.10,-163.40,102.53,-1.29,-0.47,0.53
215,-11.02,-154.09,134.44,-1.15,-0.39,0.61
216,-20.02,-155.63,158.31,-1.00,-0.41,0.75
217,-29.15,-167.76,175.88,-0.73,-0.40,1.03
218,-6.20,-187.47,183.39,-0.42,-0.52,1.23
219,5.63,-218.38,179.63,-0.00,-0.53,1.50
220,26.53,-234.43,167.80,0.42,-0.55,1.71
221,34.40,-253.18,143.66,0.88,-0.52,1.82
222,39.19,-256.99,113.71,1.31,-0.45,1.88
223,45.57,-247.04,83.40,1.63,-0.32,1.87
224,51.48,-220.23,55.08,1.86,-0.21,1.87
225,57.25,-166.79,36.29,2.06,-0.08,1.80
226,60.40,-107.40,18.06,2.12,0.03,1.73
227,70.05,-28.76,3.25,2.20,0.01,1.59
228,69.16,22.15,-12.50,2.08,0.13,1.55
229,67.71,63.36,-30.67,1.96,0.05,1.59
230,68.00,105.22,-43.76,1.90,0.11,1.49
231,59.27,141.08,-61.69,1.75,0.05,1.44
232,51.18,171.24,-75.13,1.66,0.10,1.22
233,47.39,197.42,-91.21,1.41,0.01,1.11
234,49.62,218.58,-108.32,1.12,-0.05,0.93
235,44.05,238.14,-123.59,0.76,-0.07,0.73
236,41.37,266.76,-130.31,0.40,-0.19,0.58
237,27.91,276.23,-133.31,-0.02,-0.02,0.33
238,17.39,275.62,-131.27,-0.47,0.03,0.12
239,26.56,241.08,-127.13,-1.03,-0.04,-0.04
240,2.89,210.56,-113.53,-1.35,0.09,-0.19
241,31.86,124.03,-109.04,-1.79,-0.05,-0.12
242,18.95,57.30,-99.50,-1.93,-0.01,-0.09
243,15.73,-14.27,-86.58,-2.04,-0.09,-0.16
244,-4.44,-52.87,-56.69,-2.03,-0.14,-0.17
245,-14.34,-88.92,-23.40,-1.96,-0.15,-0.13
246,-26.85,-107.40,13.86,-1.78,-0.21,-0.07
247,-35.30,-129.80,41.15,-1.55,-0.29,0.07
248,-41.36,-136.44,69.57,-1.29,-0.26,0.18
249,-48.47,-132.75,96.85,-1.09,-0.30,0.26
250,-58.02,-123.76,121.48,-0.94,-0.32,0.35
251,-68.40,-117.80,142.90,-0.79,-0.34,0.53
252,-77.50,-118.84,156.93,-0.60,-0.39,0.75
253,-78.70,-128.00,162.87,-0.32,-0.46,0.98
254,-67.98,-136.43,160.60,0.00,-0.54,1.22
255,-63.39,-132.29,155.83,0.35,-0.54,1.43
256,-46.87,-135.88,142.96,0.63,-0.58,1.69
257,-36.03,-141.97,126.85,0.92,-0.56,1.89
258,-10.87,-152.03,105.50,1.14,-0.57,2.09
259,-0.11,-150.85,87.13,1.38,-0.45,2.22
260,20.96,-131.40,70.18,1.50,-0.41,2.16
261,29.42,-99.69,57.98,1.61,-0.28,2.06
262,41.10,-75.74,44.27,1.60,-0.32,2.04
263,64.09,-43.50,32.00,1.70,-0.14,1.95
264,59.71,-23.56,17.94,1.80,-0.13,1.85
265,56.93,0.78,0.27,1.83,-0.10,1.75
266,65.45,23.19,-19.65,1.83,-0.06,1.65
267,80.92,39.28,-41.97,1.76,-0.14,1.63
268,74.17,62.21,-56.78,1.73,0.08,1.45
269,75.51,88.58,-72.09,1.62,-0.00,1.30
270,78.26,118.24,-83.65,1.56,0.05,1.09
271,63.50,154.21,-94.41,1.35,0.00,0.94
272,57.79,194.37,-101.08,1.09,-0.11,0.75
273,47.69,226.73,-106.73,0.73,-0.07,0.53
274,30.79,252.50,-109.40,0.35,0.01,0.32
275,28.99,260.40,-113.36,0.10,0.13,0.08
276,-13.28,267.91,-118.66,-0.38,0.06,-0.06
277,1.37,237.40,-124.05,-0.83,0.03,-0.12
278,-6.66,195.36,-129.22,-1.23,0.03,-0.21
279,-15.62,147.15,-133.94,-1.62,-0.04,-0.21
280,-2.24,65.91,-130.76,-1.96,-0.12,-0.20
281,-2.52,-4.61,-118.32,-2.05,-0.11,-0.19
282,-18.85,-50.92,-91.73,-2.22,-0.23,-0.17
283,-31.62,-99.98,-58.20,-2.21,-0.23,-0.18
284,-58.32,-107.83,-12.90,-2.01,-0.27,-0.07
285,-67.07,-127.89,24.47,-1.81,-0.34,0.05
286,-78.96,-117.18,64.70,-1.47,-0.33,0.13
287,-96.24,-101.04,102.63,-1.27,-0.32,0.20
288,-104.17,-91.25,138.06,-1.15,-0.38,0.35
289,-112.52,-92.60,173.30,-1.11,-0.42,0.53
290,-117.39,-94.00,205.77,-1.01,-0.48,0.74
291,-110.44,-95.15,232.89,-0.82,-0.64,0.93
292,-87.42,-109.50,248.58,-0.50,-0.76,1.24
293,-68.32,-135.27,247.66,-0.06,-0.86,1.59
294,-37.83,-167.69,228.49,0.47,-0.98,1.90
295,-19.50,-189.34,190.20,0.94,-0.98,2.13
296,-10.85,-197.13,145.39,1.59,-0.89,2.32
297,5.98,-220.70,92.14,1.73,-0.86,2.45
298,15.16,-225.57,52.23,1.88,-0.73,2.45
299,32.98,-225.31,20.17,1.85,-0.54,2.32
300,77.30,-190.96,-1.97,1.90,-0.41,2.28
301,64.00,-152.18,-2.76,1.86,-0.24,2.01
302,81.13,-90.23,-12.14,1.93,-0.04,1.85
303,98.26,-58.12,-25.54,2.01,-0.00,1.78
304,85.85,-7.83,-42.37,2.10,-0.09,1.70
305,96.79,37.27,-49.85,2.11,-0.06,1.59
306,82.60,83.79,-68.60,2.06,0.00,1.46
307,70.56,117.71,-89.57,1.86,-0.06,1.24
308,65.50,165.16,-100.90,1.69,0.01,0.97
309,59.98,203.40,-115.01,1.44,0.01,0.71
310,52.50,241.91,-125.18,1.17,0.01,0.53
311,41.24,281.05,-127.54,0.88,0.08,0.29
312,30.15,312.17,-131.08,0.44,0.06,0.09
313,18.73,323.89,-134.43,-0.08,0.03,0.00
314,29.27,302.02,-133.45,-0.58,0.03,-0.12
315,8.98,274.38,-140.24,-1.01,0.07,-0.23
316,1.22,218.78,-143.69,-1.33,0.17,-0.33
317,-21.34,152.26,-150.90,-1.72,0.15,-0.37
318,-1.40,66.08,-147.50,-2.00,-0.01,-0.31
319,5.18,-31.01,-140.60,-2.34,-0.21,-0.07
320,-10.52,-94.76,-109.91,-2.29,-0.07,-0.11
321,-25.05,-143.82,-69.79,-2.19,-0.12,-0.00
322,-40.93,-168.09,-27.07,-1.88,-0.17,0.12
323,-47.56,-178.24,7.73,-1.60,-0.23,0.22
324,-48.47,-171.68,43.33,-1.36,-0.22,0.31
325,-56.50,-149.08,81.97,-1.17,-0.23,0.44
326,-60.21,-120.31,118.60,-1.00,-0.26,0.64
327,-62.47,-110.58,145.05,-0.83,-0.37,0.95
328,-51.50,-119.54,158.35,-0.57,-0.52,1.25
329,-43.74,-128.55,162.15,-0.15,-0.64,1.55
330,-31.21,-135.66,153.39,0.24,-0.67,1.79
331,-10.87,-154.02,133.02,0.61,-0.77,2.08
332,2.53,-177.95,101.95,0.90,-0.83,2.32
333,19.48,-211.44,65.02,1.08,-0.79,2.45
334,54.38,-221.60,35.27,1.32,-0.67,2.44
335,84.06,-202.64,9.97,1.33,-0.55,2.34
336,93.18,-174.60,-3.10,1.53,-0.36,2.19
337,100.84,-154.60,-14.63,1.55,-0.13,2.04
338,103.69,-125.48,-23.18,1.63,-0.01,1.74
339,87.31,-85.73,-28.14,1.75,0.08,1.53
340,97.24,-33.39,-33.25,1.88,0.10,1.33
341,84.49,20.84,-44.26,1.90,0.20,1.11
342,66.23,82.61,-56.05,1.94,0.22,0.93
343,46.67,147.83,-70.02,1.75,0.20,0.57
344,25.76,210.15,-80.18,1.47,0.28,0.37
345,16.44,270.84,-92.46,1.17,0.18,0.18
346,-3.11,314.76,-99.63,0.78,0.26,-0.05
347,-21.53,349.76,-104.11,0.36,0.34,-0.22
348,-41.57,370.81,-109.91,-0.15,0.34,-0.38
349,-48.05,359.65,-113.16,-0.75,0.33,-0.51
350,-19.39,297.45,-113.94,-1.33,0.26,-0.49
351,-37.68,218.27,-123.62,-1.64,0.37,-0.46
352,-33.36,113.07,-130.24,-1.99,0.25,-0.42
353,-45.68,37.10,-122.72,-2.03,0.15,-0.46
354,-64.90,-46.50,-103.77,-2.11,-0.04,-0.34
355,-92.87,-97.45,-63.97,-2.05,-0.17,-0.16
356,-93.04,-145.60,-26.84,-1.90,-0.32,0.08
357,-107.19,-158.09,24.46,-1.56,-0.33,0.41
358,-96.49,-181.66,65.59,-1.32,-0.44,0.70
359,-88.55,-191.11,103.51,-1.07,-0.46,0.92
360,-73.91,-187.31,139.15,-0.86,-0.50,1.15
361,-64.76,-174.32,169.79,-0.53,-0.54,1.39
362,-23.57,-174.29,185.71,-0.14,-0.70,1.67
363,7.37,-185.92,181.66,0.29,-0.76,1.96
364,24.37,-192.95,168.12,0.86,-0.78,2.27
365,16.81,-195.60,134.73,1.29,-0.74,2.40
366,11.56,-213.92,98.15,1.55,-0.67,2.49
367,25.57,-244.84,56.56,1.77,-0.61,2.51
368,35.31,-246.32,23.54,1.99,-0.36,2.36
369,76.18,-187.18,0.09,2.29,-0.51,2.12
370,65.22,-144.49,-22.06,2.26,-0.03,2.05
371,73.19,-77.71,-41.65,2.29,0.01,1.77
372,75.73,-12.24,-54.32,2.28,0.11,1.60
373,68.70,56.23,-65.63,2.27,0.20,1.42
374,58.99,114.09,-81.95,2.00,0.03,1.34
375,29.77,179.62,-93.42,1.80,0.04,1.00
376,37.66,222.63,-104.24,1.58,-0.05,0.78
377,28.50,261.98,-117.34,1.24,-0.00,0.59
378,15.34,296.79,-128.87,0.86,-0.04,0.40
379,14.02,315.28,-136.06,0.40,-0.09,0.24
380,6.70,322.44,-138.12,-0.02,-0.00,0.07
381,-3.33,309.05,-140.79,-0.45,0.07,-0.07
382,-9.94,281.04,-141.16,-0.81,0.16,-0.20
383,-5.07,217.30,-147.47,-1.26,0.11,-0.20
384,-16.90,155.57,-149.36,-1.54,0.11,-0.24
385,-4.44,61.54,-143.11,-1.83,0.11,-0.25
386,-18.75,-8.38,-125.74,-1.85,0.23,-0.28
387,-28.14,-87.45,-106.14,-1.92,0.08,-0.20
388,-48.60,-141.98,-73.60,-1.81,0.01,-0.10
389,-61.51,-170.82,-34.99,-1.52,-0.03,0.08
390,-67.28,-188.79,-5.08,-1.22,-0.09,0.26
391,-67.21,-182.29,24.93,-0.95,-0.14,0.43
392,-57.31,-184.02,59.11,-0.85,-0.26,0.70
393,-60.89,-167.44,93.34,-0.60,-0.33,1.00
394,-53.51,-155.76,117.25,-0.29,-0.42,1.25
395,-50.95,-143.98,129.83,0.09,-0.51,1.51
396,-41.10,-131.63,126.63,0.50,-0.56,1.73
397,-36.27,-131.45,108.70,0.84,-0.59,1.94
398,-28.27,-122.05,85.31,1.12,-0.64,2.09
399,14.29,-125.86,43.79,1.29,-0.77,2.23
400,18.85,-115.95,16.49,1.55,-0.52,2.33
