,gyro_x,gyro_y,gyro_z,acce_x,acce_y,acce_z
0,3.48,0.00,0.07,-0.18,1.06,"30.93[0m
"
1,-0.55,1.97,-0.15,0.06,-0.19,1.06
2,0.67,3.10,-0.37,0.07,-0.18,1.05
3,0.08,7.39,0.06,0.07,-0.18,1.03
4,-0.85,10.35,0.46,0.06,-0.18,1.01
5,-0.60,7.98,-0.09,0.04,-0.19,1.01
6,-0.46,4.89,-0.90,0.04,-0.19,1.02
7,-0.75,4.49,-1.44,0.05,-0.18,1.00
8,-1.30,3.98,-1.07,0.03,-0.18,1.01
9,-1.59,2.53,-0.67,0.02,-0.18,1.02
10,-1.77,2.61,0.17,0.02,-0.18,1.02
11,-1.94,3.65,0.47,0.03,-0.17,1.01
12,-1.82,3.11,0.40,0.03,-0.17,1.03
13,-1.94,3.50,0.38,0.04,-0.18,1.03
14,-1.91,3.82,1.05,0.03,-0.18,1.03
15,-2.12,3.74,1.27,0.02,-0.18,1.03
16,-1.95,3.50,1.11,0.03,-0.18,1.02
17,-2.27,3.68,1.18,0.04,-0.18,1.00
18,-2.60,3.22,0.76,0.03,-0.19,1.01
19,-2.75,2.14,0.49,0.02,-0.19,1.01
20,-3.37,2.11,0.18,0.03,-0.19,1.00
21,-4.12,2.00,0.49,0.03,-0.19,1.01
22,-4.90,1.89,0.98,0.02,-0.18,1.00
23,-5.33,2.27,2.09,0.01,-0.18,1.01
24,-5.50,2.92,3.42,0.02,-0.18,0.99
25,-5.51,4.03,4.02,0.03,-0.17,0.99
26,-5.34,5.18,4.63,0.04,-0.17,0.99
27,-5.27,5.82,4.84,0.04,-0.17,0.99
28,-5.54,6.81,4.87,0.04,-0.17,0.99
29,-6.38,6.55,4.89,0.04,-0.17,0.99
30,-6.78,5.94,4.37,0.05,-0.17,0.98
31,-7.85,5.45,3.85,0.05,-0.17,0.98
32,-8.92,4.06,3.36,0.05,-0.17,0.97
33,-9.83,3.27,2.58,0.05,-0.18,0.97
34,-10.44,2.06,1.79,0.05,-0.18,0.98
35,-10.76,0.90,0.98,0.04,-0.18,0.99
36,-11.08,0.20,0.44,0.05,-0.18,0.98
37,-11.76,-0.11,0.34,0.04,-0.18,0.97
38,-12.37,-0.61,1.07,0.02,-0.18,0.98
39,-13.16,-0.53,1.88,0.02,-0.17,0.97
40,-13.98,0.72,2.46,0.03,-0.17,0.97
41,-14.63,0.73,2.00,0.04,-0.19,0.98
42,-15.19,-0.46,1.22,0.04,-0.19,0.99
43,-15.59,-1.62,0.99,0.04,-0.20,1.00
44,-16.40,-2.53,0.55,0.04,-0.20,1.00
45,-16.70,-3.42,0.21,0.05,-0.21,1.01
46,-17.33,-3.36,0.24,0.06,-0.22,1.01
47,-17.19,-3.13,0.18,0.06,-0.22,1.03
48,-16.50,-1.27,-0.46,0.08,-0.23,1.03
49,-15.30,1.10,0.08,0.08,-0.23,1.05
50,-14.43,3.82,0.87,0.07,-0.23,1.04
51,-13.98,5.65,1.59,0.06,-0.23,1.05
52,-13.31,6.70,1.97,0.07,-0.24,1.06
53,-12.46,7.02,2.26,0.05,-0.23,1.06
54,-11.53,6.64,2.24,0.05,-0.24,1.07
55,-10.82,6.66,2.40,0.04,-0.25,1.07
56,-9.59,6.95,2.23,0.04,-0.25,1.07
57,-8.52,7.71,2.31,0.03,-0.24,1.06
58,-7.73,8.64,2.73,0.02,-0.24,1.05
59,-7.36,9.74,3.37,0.01,-0.25,1.03
60,-7.45,9.57,3.48,0.01,-0.24,1.02
61,-7.73,10.75,3.94,0.02,-0.23,1.02
62,-7.94,11.57,4.14,0.02,-0.23,1.02
63,-8.27,11.79,4.31,0.02,-0.22,1.02
64,-8.29,11.18,4.67,0.01,-0.22,1.01
65,-8.37,11.24,4.52,0.01,-0.22,1.02
66,-8.38,10.84,4.43,0.01,-0.21,1.01
67,-8.38,10.06,4.31,0.01,-0.20,1.01
68,-8.32,9.01,4.35,0.01,-0.20,1.01
69,-8.70,8.70,4.35,0.01,-0.20,1.00
70,-9.18,9.30,4.31,0.01,-0.20,1.01
71,-9.74,9.51,4.23,0.01,-0.20,1.00
72,-10.26,9.33,4.11,0.00,-0.20,1.00
73,-10.63,9.13,4.44,-0.01,-0.21,1.00
74,-11.05,8.78,4.61,-0.01,-0.21,1.01
75,-11.31,8.20,4.66,-0.02,-0.21,1.01
76,-11.57,6.93,4.96,-0.03,-0.21,1.02
77,-11.60,5.34,5.19,-0.05,-0.21,1.01
78,-11.83,4.02,5.95,-0.04,-0.21,1.01
79,-12.76,4.18,6.58,-0.03,-0.20,1.02
80,-13.82,4.50,6.93,-0.03,-0.20,1.02
81,-14.21,4.15,6.69,-0.02,-0.20,1.01
82,-14.73,3.33,6.43,-0.02,-0.20,1.02
83,-15.18,2.56,5.95,-0.02,-0.21,1.03
84,-15.44,2.09,5.21,-0.01,-0.22,1.03
85,-15.77,0.34,4.72,-0.02,-0.22,1.05
86,-16.12,-1.27,4.76,-0.03,-0.23,1.05
87,-16.27,-1.08,4.92,-0.02,-0.24,1.05
88,-15.92,-1.07,5.42,-0.02,-0.24,1.07
89,-14.81,-0.70,5.73,-0.01,-0.25,1.07
90,-13.92,-0.34,6.21,-0.01,-0.25,1.07
91,-13.63,1.77,7.04,-0.02,-0.25,1.07
92,-13.28,4.34,8.11,-0.02,-0.25,1.07
93,-12.98,6.34,8.96,-0.02,-0.25,1.07
94,-12.81,7.02,9.59,-0.03,-0.25,1.06
95,-12.17,7.21,10.37,-0.03,-0.25,1.07
96,-11.42,5.69,10.18,-0.03,-0.25,1.08
97,-10.75,5.30,10.35,-0.04,-0.26,1.07
98,-10.34,6.27,10.53,-0.04,-0.25,1.06
99,-10.08,5.24,10.76,-0.05,-0.26,1.05
100,-9.69,4.27,11.08,-0.05,-0.26,1.06
101,-9.28,3.37,11.10,-0.06,-0.26,1.06
102,-8.63,2.34,11.39,-0.06,-0.27,1.06
103,-8.05,2.70,11.86,-0.07,-0.26,1.05
104,-7.34,2.90,12.53,-0.08,-0.27,1.05
105,-6.76,2.67,13.39,-0.09,-0.27,1.05
106,-6.44,2.44,14.40,-0.09,-0.26,1.05
107,-6.14,3.53,15.95,-0.09,-0.26,1.03
108,-6.38,4.08,16.92,-0.08,-0.25,1.03
109,-6.75,4.85,17.53,-0.08,-0.24,1.01
110,-7.11,5.77,17.88,-0.08,-0.23,1.01
111,-7.57,5.88,17.88,-0.07,-0.23,1.01
112,-8.49,5.31,18.38,-0.09,-0.23,1.00
113,-9.44,4.53,18.87,-0.08,-0.23,1.00
114,-10.43,3.11,18.84,-0.07,-0.22,1.00
115,-11.40,2.15,18.35,-0.06,-0.23,1.00
116,-11.80,1.44,17.77,-0.06,-0.24,1.01
117,-12.38,0.11,17.51,-0.06,-0.25,1.00
118,-12.82,-1.39,17.05,-0.07,-0.26,1.02
119,-13.13,-3.76,16.76,-0.07,-0.27,1.03
120,-13.13,-4.27,16.82,-0.06,-0.28,1.03
121,-12.31,-4.02,17.50,-0.05,-0.29,1.05
122,-11.80,-3.37,18.00,-0.05,-0.29,1.07
123,-9.60,-2.64,18.78,-0.05,-0.29,1.07
124,-8.08,-0.37,20.29,-0.05,-0.29,1.08
125,-6.84,2.18,21.31,-0.05,-0.28,1.06
126,-5.83,4.31,21.82,-0.04,-0.28,1.04
127,-5.51,5.71,22.09,-0.05,-0.28,1.03
128,-5.76,5.69,22.61,-0.06,-0.27,1.02
129,-5.98,6.18,22.98,-0.06,-0.27,1.02
130,-6.44,5.05,22.96,-0.07,-0.27,1.01
131,-6.85,3.39,22.76,-0.07,-0.27,1.00
132,-6.98,3.27,22.75,-0.07,-0.28,1.00
133,-7.11,3.51,22.87,-0.07,-0.28,1.01
134,-7.74,2.73,23.24,-0.08,-0.29,1.01
135,-7.62,1.10,23.27,-0.09,-0.29,1.02
136,-7.11,0.82,23.74,-0.08,-0.30,1.03
137,-5.57,1.31,24.66,-0.09,-0.30,1.04
138,-4.38,2.27,25.50,-0.09,-0.29,1.03
139,-3.65,3.95,26.82,-0.09,-0.29,1.01
140,-3.24,5.33,27.79,-0.10,-0.28,0.99
141,-3.85,6.49,28.20,-0.09,-0.27,0.98
142,-5.42,7.48,28.40,-0.09,-0.26,0.96
143,-7.11,6.18,28.32,-0.10,-0.27,0.96
144,-8.63,3.63,28.55,-0.11,-0.27,0.97
145,-9.24,1.77,28.69,-0.11,-0.27,0.98
146,-9.59,-0.61,28.43,-0.10,-0.28,0.97
147,-10.03,-2.47,27.85,-0.08,-0.29,1.00
148,-10.29,-3.88,27.89,-0.09,-0.29,0.98
149,-10.41,-4.05,28.09,-0.07,-0.29,1.00
150,-10.58,-3.54,28.47,-0.08,-0.29,1.01
151,-10.85,-2.52,29.05,-0.07,-0.29,1.01
152,-11.21,-0.67,29.50,-0.07,-0.29,1.01
153,-11.54,0.56,30.14,-0.08,-0.29,1.02
154,-11.42,1.16,30.76,-0.08,-0.29,1.03
155,-10.87,1.54,31.74,-0.09,-0.29,1.03
156,-10.87,2.31,32.27,-0.08,-0.29,1.03
157,-10.96,2.08,32.11,-0.08,-0.29,1.03
158,-10.93,1.44,32.29,-0.08,-0.29,1.03
159,-11.02,1.45,32.20,-0.08,-0.29,1.02
160,-11.25,1.45,32.23,-0.08,-0.30,1.03
161,-10.73,1.60,32.32,-0.07,-0.30,1.02
162,-10.64,-0.05,31.54,-0.08,-0.30,1.02
163,-10.92,-3.05,30.72,-0.08,-0.30,1.01
164,-11.13,-4.00,30.34,-0.09,-0.31,1.02
165,-11.74,-4.93,30.38,-0.08,-0.30,1.02
166,-12.85,-6.11,30.12,-0.07,-0.30,1.02
167,-13.92,-6.37,29.51,-0.07,-0.30,1.01
168,-14.87,-6.03,28.73,-0.06,-0.31,1.03
169,-15.36,-5.48,27.94,-0.07,-0.31,1.04
170,-15.82,-5.98,27.37,-0.07,-0.31,1.04
171,-15.97,-6.55,27.27,-0.07,-0.32,1.04
172,-16.08,-6.38,26.63,-0.06,-0.33,1.05
173,-15.53,-5.92,26.46,-0.06,-0.33,1.05
174,-15.02,-6.11,26.49,-0.06,-0.34,1.05
175,-14.09,-6.58,26.37,-0.07,-0.35,1.05
176,-13.50,-7.05,26.55,-0.06,-0.35,1.05
177,-12.56,-7.34,26.81,-0.06,-0.35,1.06
178,-11.68,-7.08,27.16,-0.06,-0.35,1.06
179,-10.47,-6.29,27.34,-0.07,-0.35,1.05
180,-9.36,-6.23,27.92,-0.06,-0.35,1.04
181,-8.75,-5.51,28.50,-0.06,-0.34,1.03
182,-8.53,-3.48,28.79,-0.05,-0.34,1.03
183,-8.20,-2.03,29.56,-0.06,-0.33,1.02
184,-8.00,0.63,30.29,-0.07,-0.32,1.02
185,-7.85,2.84,31.18,-0.07,-0.33,1.00
186,-8.38,5.13,32.02,-0.08,-0.32,0.98
187,-9.11,6.46,32.20,-0.08,-0.32,0.98
188,-10.11,6.67,32.17,-0.08,-0.32,0.97
189,-10.72,6.69,31.53,-0.08,-0.32,0.97
190,-11.77,3.88,30.96,-0.10,-0.33,0.98
191,-12.00,0.63,29.89,-0.11,-0.33,0.99
192,-12.27,-2.67,29.28,-0.11,-0.34,1.00
193,-11.82,-6.12,28.41,-0.11,-0.33,1.01
194,-11.56,-9.19,27.65,-0.12,-0.33,1.00
195,-11.80,-11.15,27.42,-0.12,-0.33,0.99
196,-12.21,-13.05,27.54,-0.12,-0.33,1.00
197,-12.56,-13.68,27.95,-0.12,-0.33,0.98
198,-13.51,-14.69,28.05,-0.13,-0.33,0.98
199,-15.33,-19.13,29.05,-0.14,-0.34,0.98
200,-15.45,-16.02,30.46,-0.12,-0.33,1.00
201,-15.51,-12.12,31.89,-0.11,-0.33,0.99
202,-15.11,-13.80,32.00,-0.12,-0.34,1.02
203,-14.92,-14.23,32.15,-0.11,-0.35,1.01
204,-15.39,-13.59,32.52,-0.10,-0.34,1.01
205,-16.26,-14.93,32.43,-0.11,-0.34,1.02
206,-16.55,-16.18,32.40,-0.10,-0.36,1.03
207,-16.52,-17.79,31.71,-0.09,-0.37,1.04
208,-16.08,-19.71,31.59,-0.10,-0.37,1.06
209,-15.89,-20.58,32.20,-0.11,-0.38,1.05
210,-15.48,-22.96,32.56,-0.10,-0.39,1.07
211,-14.23,-28.75,32.20,-0.11,-0.38,1.08
212,-12.06,-26.43,32.29,-0.08,-0.38,1.09
213,-10.75,-22.84,33.19,-0.08,-0.39,1.08
214,-10.69,-22.20,33.63,-0.08,-0.38,1.08
215,-11.01,-20.46,34.20,-0.08,-0.38,1.06
216,-10.90,-18.60,34.69,-0.08,-0.38,1.06
217,-10.98,-17.02,35.02,-0.08,-0.38,1.08
218,-10.60,-16.55,35.82,-0.08,-0.39,1.08
219,-10.46,-14.78,36.40,-0.07,-0.38,1.08
220,-9.15,-14.18,36.41,-0.06,-0.38,1.07
221,-8.00,-16.37,36.06,-0.07,-0.38,1.07
222,-7.95,-19.74,35.76,-0.08,-0.39,1.06
223,-8.31,-21.13,35.36,-0.07,-0.38,1.06
224,-8.32,-22.69,34.79,-0.07,-0.38,1.05
225,-8.02,-23.82,34.35,-0.06,-0.39,1.06
226,-7.60,-25.16,34.37,-0.07,-0.38,1.05
227,-7.18,-24.72,34.87,-0.07,-0.38,1.06
228,-7.19,-24.55,34.82,-0.07,-0.37,1.04
229,-7.60,-23.85,35.11,-0.06,-0.38,1.04
230,-8.49,-23.71,35.04,-0.05,-0.38,1.03
231,-9.33,-23.65,34.40,-0.05,-0.39,1.04
232,-9.86,-24.99,33.54,-0.05,-0.40,1.05
233,-9.60,-26.38,32.35,-0.04,-0.40,1.06
234,-9.05,-28.27,31.53,-0.03,-0.40,1.07
235,-8.60,-29.71,31.62,-0.04,-0.40,1.07
236,-7.91,-29.80,32.26,-0.03,-0.40,1.07
237,-6.46,-29.21,32.64,-0.03,-0.39,1.06
238,-6.17,-29.50,32.69,-0.01,-0.39,1.06
239,-5.63,-27.01,33.24,-0.01,-0.39,1.05
240,-5.24,-24.47,34.52,-0.01,-0.39,1.06
241,-4.35,-23.92,35.47,-0.02,-0.40,1.07
242,-3.80,-21.50,36.20,-0.00,-0.40,1.06
243,-3.79,-19.18,36.87,-0.00,-0.39,1.04
244,-3.37,-17.24,37.42,-0.00,-0.39,1.04
245,-2.93,-14.67,37.89,-0.00,-0.39,1.03
246,-3.05,-12.23,38.18,0.00,-0.38,1.04
247,-3.59,-10.70,38.09,0.00,-0.38,1.02
248,-2.75,-9.53,37.95,0.00,-0.39,1.02
249,-3.39,-10.34,37.04,-0.01,-0.39,1.02
250,-2.78,-12.52,36.70,-0.02,-0.39,1.02
251,-2.72,-15.08,35.97,-0.03,-0.39,1.02
252,-3.50,-18.03,34.87,-0.02,-0.39,1.02
253,-3.68,-20.29,33.53,-0.03,-0.39,1.02
254,-3.44,-23.13,32.43,-0.03,-0.40,1.02
255,-3.48,-25.74,31.85,-0.03,-0.39,1.02
256,-3.47,-27.79,31.51,-0.03,-0.39,1.02
257,-4.20,-28.63,31.22,-0.02,-0.39,1.02
258,-4.85,-27.89,31.47,-0.02,-0.40,1.02
259,-4.79,-27.57,30.99,-0.01,-0.39,1.02
260,-5.11,-27.07,30.99,-0.01,-0.40,1.00
261,-5.31,-26.06,31.05,-0.01,-0.40,1.02
262,-5.39,-24.23,31.53,-0.01,-0.40,1.01
263,-5.69,-23.94,31.83,-0.01,-0.41,1.01
264,-4.95,-22.49,32.03,-0.01,-0.42,1.04
265,-4.21,-20.32,32.50,-0.00,-0.42,1.03
266,-3.28,-19.53,32.93,-0.01,-0.42,1.03
267,-2.49,-19.51,33.83,-0.02,-0.41,1.02
268,-2.29,-19.28,34.34,-0.00,-0.41,1.01
269,-1.86,-18.60,34.64,-0.01,-0.40,1.00
270,-1.45,-19.65,34.73,-0.01,-0.40,1.01
271,-1.48,-19.65,34.76,0.01,-0.40,1.01
272,-1.44,-18.50,34.61,0.01,-0.39,1.01
273,-1.56,-17.89,34.14,0.01,-0.39,1.00
274,-2.23,-18.78,33.33,0.01,-0.39,0.99
275,-2.76,-19.68,32.84,0.00,-0.38,1.00
276,-3.24,-19.28,32.43,0.01,-0.38,1.00
277,-3.45,-19.44,31.79,-0.00,-0.39,1.01
278,-3.47,-20.73,31.36,-0.01,-0.39,1.02
279,-2.64,-22.26,30.96,-0.01,-0.39,1.02
280,-2.46,-23.34,30.76,-0.01,-0.39,1.02
281,-1.79,-24.40,30.08,-0.01,-0.39,1.02
282,-1.15,-26.43,29.37,-0.01,-0.39,1.03
283,-0.96,-26.92,28.90,-0.01,-0.39,1.03
284,-0.69,-26.34,29.02,-0.01,-0.39,1.02
285,-0.76,-26.55,29.44,-0.03,-0.39,1.02
286,-1.01,-26.46,29.80,-0.02,-0.39,1.01
287,-2.15,-28.17,29.45,-0.01,-0.38,1.01
288,-2.81,-28.15,29.68,-0.01,-0.40,1.01
289,-3.91,-28.26,30.08,-0.02,-0.40,1.03
290,-3.53,-28.60,30.82,-0.01,-0.40,1.04
291,-2.95,-29.86,31.01,-0.01,-0.41,1.05
292,-2.73,-30.99,30.66,0.01,-0.42,1.05
293,-1.74,-30.95,30.72,0.02,-0.42,1.07
294,-1.11,-29.98,30.50,0.02,-0.43,1.08
295,-0.14,-30.96,30.84,0.01,-0.42,1.06
296,0.79,-31.07,31.10,0.01,-0.42,1.07
297,0.76,-30.29,31.21,0.02,-0.41,1.05
298,1.22,-29.36,31.15,0.02,-0.41,1.04
299,1.13,-30.12,30.47,0.03,-0.42,1.05
300,0.73,-31.53,29.85,0.02,-0.42,1.04
301,0.09,-34.09,28.79,0.04,-0.42,1.04
302,-0.70,-36.79,26.75,0.05,-0.43,1.04
303,-0.92,-39.37,24.93,0.06,-0.43,1.05
304,-1.04,-41.80,23.42,0.07,-0.45,1.06
305,-0.38,-44.05,22.55,0.06,-0.45,1.08
306,0.79,-44.63,22.53,0.08,-0.45,1.07
307,1.31,-44.81,22.34,0.09,-0.45,1.08
308,2.63,-42.99,22.53,0.09,-0.45,1.08
309,4.14,-39.91,23.63,0.09,-0.44,1.08
310,5.51,-35.94,25.44,0.08,-0.44,1.09
311,7.37,-32.43,26.78,0.08,-0.43,1.08
312,8.20,-28.46,27.57,0.09,-0.43,1.06
313,8.78,-26.46,28.35,0.08,-0.42,1.05
314,9.07,-25.47,28.79,0.08,-0.42,1.03
315,8.79,-25.76,28.79,0.07,-0.42,1.02
316,7.77,-28.08,28.34,0.08,-0.42,1.01
317,7.07,-31.45,27.37,0.09,-0.42,1.01
318,6.52,-35.07,26.27,0.09,-0.42,1.01
319,6.37,-37.11,24.96,0.11,-0.41,1.03
320,6.70,-39.22,23.92,0.11,-0.41,1.03
321,7.21,-40.52,23.45,0.11,-0.41,1.03
322,7.71,-40.89,22.95,0.11,-0.41,1.03
323,7.92,-40.70,22.82,0.12,-0.41,1.03
324,8.06,-40.21,23.01,0.12,-0.40,1.01
325,8.17,-38.72,23.68,0.12,-0.40,1.00
326,7.89,-36.20,23.89,0.13,-0.40,1.00
327,7.62,-33.24,24.15,0.14,-0.41,1.01
328,7.44,-32.09,24.03,0.14,-0.41,1.01
329,7.48,-32.56,23.60,0.14,-0.41,1.01
330,7.42,-33.59,23.04,0.15,-0.42,1.01
331,7.24,-34.03,22.70,0.15,-0.42,1.01
332,7.89,-35.10,22.60,0.15,-0.42,1.02
333,8.50,-36.38,22.14,0.15,-0.42,1.03
334,9.30,-37.11,21.51,0.16,-0.42,1.02
335,10.00,-36.61,21.40,0.16,-0.41,1.04
336,10.95,-33.91,21.63,0.17,-0.41,1.02
337,12.21,-34.17,21.56,0.17,-0.40,1.02
338,11.65,-33.10,21.47,0.17,-0.40,1.00
339,11.79,-34.61,20.70,0.18,-0.40,1.01
340,11.77,-28.96,21.37,0.20,-0.39,0.99
341,10.56,-25.15,21.57,0.19,-0.39,0.98
342,10.46,-26.15,21.40,0.18,-0.39,0.99
343,10.38,-27.82,20.47,0.19,-0.39,1.00
344,10.31,-30.21,19.18,0.19,-0.39,1.00
345,9.88,-32.95,17.62,0.19,-0.39,1.00
346,9.56,-33.94,16.70,0.21,-0.39,1.01
347,9.83,-34.56,15.65,0.20,-0.38,0.99
348,10.47,-35.68,14.21,0.22,-0.39,1.00
349,11.36,-34.21,13.11,0.23,-0.37,0.99
350,11.04,-34.50,11.65,0.22,-0.39,0.98
351,10.66,-37.02,9.91,0.22,-0.38,0.99
352,10.43,-37.28,8.50,0.24,-0.39,0.98
353,9.91,-36.35,7.04,0.25,-0.38,0.99
354,9.80,-37.15,5.66,0.25,-0.39,0.99
355,9.80,-38.09,5.18,0.24,-0.39,1.00
356,9.80,-38.18,5.47,0.23,-0.39,1.00
357,9.80,-36.79,5.74,0.25,-0.39,1.00
358,9.95,-34.95,5.77,0.26,-0.39,1.01
359,10.64,-32.96,6.24,0.25,-0.38,1.00
360,11.50,-31.73,7.53,0.24,-0.39,1.01
361,12.37,-28.73,9.01,0.25,-0.38,1.02
362,13.05,-24.11,9.62,0.26,-0.38,1.01
363,13.56,-20.67,9.63,0.26,-0.38,1.00
364,14.05,-18.40,9.66,0.27,-0.38,1.00
365,13.76,-17.05,9.44,0.26,-0.38,1.00
366,13.54,-17.27,9.40,0.25,-0.37,0.98
367,13.07,-17.27,9.07,0.26,-0.37,0.97
368,12.40,-17.04,8.43,0.28,-0.37,0.99
369,11.83,-18.11,7.27,0.28,-0.37,0.99
370,12.02,-19.54,5.95,0.29,-0.37,0.99
371,11.77,-19.30,4.78,0.30,-0.37,0.99
372,11.27,-18.84,3.69,0.30,-0.36,0.98
373,11.37,-18.55,2.53,0.31,-0.37,1.00
374,11.33,-17.50,1.59,0.32,-0.37,0.99
375,11.57,-16.61,0.18,0.32,-0.37,1.00
376,12.46,-16.47,-0.58,0.31,-0.38,0.99
377,13.57,-16.56,-1.63,0.30,-0.39,1.01
378,14.53,-15.57,-2.55,0.31,-0.38,1.00
379,15.39,-17.28,-4.32,0.31,-0.39,1.02
380,15.10,-17.51,-5.94,0.32,-0.39,1.00
381,15.22,-17.91,-7.36,0.32,-0.38,0.98
382,14.43,-17.24,-8.38,0.30,-0.38,0.99
383,15.10,-18.43,-8.76,0.29,-0.38,1.00
384,15.05,-17.56,-8.46,0.29,-0.38,1.00
385,15.21,-16.66,-8.46,0.30,-0.39,1.01
386,15.97,-15.69,-8.44,0.31,-0.38,1.01
387,16.17,-12.66,-8.93,0.33,-0.38,1.02
388,16.93,-9.88,-8.95,0.33,-0.37,1.01
389,17.77,-7.01,-9.50,0.34,-0.37,1.00
390,18.15,-5.95,-10.64,0.33,-0.37,1.00
391,18.72,-7.40,-12.02,0.32,-0.37,1.00
392,18.61,-8.69,-12.87,0.30,-0.37,1.01
393,18.31,-8.37,-13.48,0.31,-0.36,1.00
394,18.37,-9.04,-14.49,0.31,-0.35,0.99
395,18.00,-10.72,-16.31,0.32,-0.35,0.99
396,17.42,-13.04,-18.32,0.32,-0.35,0.99
397,17.74,-14.09,-18.98,0.31,-0.35,0.99
398,18.40,-12.70,-19.77,0.32,-0.35,0.99
399,17.98,-13.66,-21.22,0.33,-0.34,0.98
400,18.11,-15.30,-23.24,0.32,-0.33,0.98
401,17.95,-15.02,-23.97,0.32,-0.33,0.99
402,17.79,-14.11,-24.40,0.31,-0.33,0.98
403,17.65,-13.50,-24.37,0.33,-0.32,0.98
404,17.71,-11.54,-24.35,0.33,-0.32,0.98
405,17.16,-9.15,-23.48,0.33,-0.32,0.97
406,17.22,-5.95,-22.70,0.35,-0.31,0.95
407,16.84,-2.92,-22.41,0.36,-0.30,0.96
408,16.98,-0.63,-22.79,0.36,-0.30,0.95
409,16.93,1.05,-23.25,0.36,-0.29,0.95
410,16.55,2.92,-23.63,0.38,-0.28,0.94
411,15.37,3.98,-25.04,0.38,-0.29,0.93
412,14.81,3.42,-26.82,0.38,-0.29,0.93
413,13.45,1.65,-29.15,0.37,-0.29,0.94
414,12.70,-1.40,-31.05,0.36,-0.30,0.95
415,13.28,-5.88,-32.99,0.36,-0.30,0.96
416,13.82,-7.47,-35.21,0.37,-0.30,0.96
417,14.41,-8.47,-37.45,0.38,-0.29,0.95
418,14.40,-9.34,-39.53,0.37,-0.29,0.95
419,14.56,-7.83,-40.58,0.36,-0.28,0.94
420,13.79,-5.48,-40.17,0.36,-0.28,0.93
421,13.82,-3.91,-39.19,0.35,-0.27,0.92
422,12.76,-2.23,-38.60,0.35,-0.28,0.93
423,12.17,-0.56,-38.81,0.36,-0.27,0.94
424,12.41,0.93,-38.92,0.36,-0.27,0.93
425,12.12,3.16,-38.47,0.36,-0.27,0.93
426,11.79,5.01,-38.58,0.36,-0.27,0.94
427,13.02,5.28,-39.37,0.36,-0.27,0.94
428,13.48,4.96,-40.18,0.36,-0.27,0.94
429,13.39,5.68,-40.84,0.36,-0.27,0.93
430,12.38,6.67,-41.27,0.36,-0.25,0.91
431,11.71,6.85,-41.82,0.35,-0.26,0.92
432,10.79,6.40,-42.41,0.36,-0.25,0.92
433,9.68,5.86,-42.72,0.37,-0.25,0.93
434,9.56,7.11,-43.10,0.37,-0.25,0.94
435,10.06,7.65,-44.00,0.38,-0.25,0.93
436,10.38,7.31,-45.04,0.37,-0.25,0.94
437,11.22,7.30,-45.44,0.36,-0.25,0.96
438,12.00,7.62,-46.20,0.35,-0.25,0.94
439,12.70,7.50,-46.46,0.33,-0.24,0.95
440,13.62,7.71,-45.60,0.33,-0.23,0.95
441,14.29,8.18,-45.05,0.32,-0.24,0.95
442,14.69,10.40,-44.73,0.34,-0.23,0.94
443,14.84,12.18,-43.88,0.34,-0.22,0.94
444,14.87,12.18,-44.05,0.34,-0.22,0.93
445,14.34,13.22,-44.24,0.36,-0.22,0.92
446,13.91,14.18,-44.90,0.37,-0.20,0.92
447,13.11,13.77,-46.31,0.38,-0.21,0.93
448,12.76,13.08,-47.69,0.38,-0.21,0.93
449,12.12,13.01,-49.31,0.38,-0.22,0.93
450,11.30,11.11,-50.63,0.37,-0.21,0.93
451,11.37,9.92,-51.88,0.36,-0.21,0.94
452,11.86,9.10,-52.81,0.35,-0.21,0.95
453,12.18,9.40,-52.79,0.35,-0.21,0.95
454,12.69,11.15,-52.26,0.34,-0.20,0.96
455,13.19,12.56,-51.63,0.34,-0.20,0.97
456,14.26,14.44,-50.78,0.34,-0.19,0.96
457,14.41,17.56,-49.62,0.35,-0.18,0.95
458,14.18,19.56,-49.01,0.36,-0.18,0.95
459,13.73,20.24,-48.78,0.36,-0.17,0.94
460,13.37,21.18,-49.22,0.36,-0.16,0.93
461,12.81,21.45,-49.98,0.36,-0.16,0.93
462,12.29,20.50,-51.51,0.35,-0.14,0.93
463,11.53,19.16,-52.81,0.36,-0.15,0.93
464,10.47,18.82,-54.12,0.35,-0.15,0.92
465,9.57,18.47,-55.53,0.35,-0.14,0.92
466,8.64,17.68,-56.46,0.34,-0.14,0.93
467,7.47,17.15,-57.10,0.35,-0.14,0.93
468,6.38,18.23,-57.92,0.35,-0.14,0.95
469,6.26,19.37,-58.06,0.34,-0.14,0.95
470,5.94,19.31,-58.38,0.35,-0.15,0.96
471,5.89,20.99,-58.38,0.35,-0.15,0.96
472,6.34,20.95,-58.85,0.34,-0.14,0.97
473,6.93,21.30,-59.31,0.33,-0.15,0.98
474,7.44,22.52,-59.10,0.33,-0.15,0.97
475,8.20,22.99,-58.66,0.33,-0.14,0.97
476,8.70,23.04,-59.08,0.33,-0.14,0.97
477,8.40,23.05,-60.15,0.32,-0.13,0.96
478,8.63,23.71,-60.29,0.31,-0.12,0.95
479,7.74,24.99,-59.36,0.30,-0.12,0.95
480,7.37,24.95,-58.98,0.30,-0.11,0.95
481,6.32,28.18,-58.44,0.31,-0.10,0.95
482,6.63,29.60,-58.37,0.30,-0.11,0.95
483,5.95,30.06,-58.08,0.28,-0.09,0.95
484,5.97,30.61,-57.97,0.28,-0.10,0.94
485,5.89,30.14,-58.56,0.27,-0.09,0.94
486,5.05,29.95,-59.98,0.27,-0.09,0.92
487,4.12,28.08,-61.27,0.25,-0.09,0.92
488,2.95,25.11,-62.38,0.23,-0.09,0.92
489,1.10,22.53,-62.60,0.22,-0.08,0.92
490,-0.70,21.02,-62.87,0.24,-0.09,0.92
491,-1.21,19.79,-64.02,0.25,-0.09,0.95
492,-0.85,19.11,-65.15,0.24,-0.08,0.95
493,-1.01,19.54,-65.48,0.24,-0.08,0.95
494,-1.33,19.66,-65.85,0.23,-0.08,0.94
495,-1.42,18.46,-65.77,0.22,-0.08,0.95
496,-1.36,18.09,-65.42,0.21,-0.08,0.96
497,-1.36,17.85,-65.04,0.19,-0.08,0.95
498,-1.42,16.98,-64.15,0.17,-0.09,0.96
499,-1.27,17.86,-62.20,0.16,-0.08,0.95
500,-1.47,19.47,-60.23,0.17,-0.08,0.95
501,-2.52,21.74,-57.82,0.17,-0.07,0.94
502,-3.53,24.09,-56.87,0.18,-0.06,0.95
503,-4.00,25.86,-56.69,0.19,-0.06,0.95
504,-4.40,25.13,-56.95,0.17,-0.06,0.96
505,-5.08,23.08,-56.70,0.15,-0.06,0.96
506,-5.88,20.92,-57.05,0.16,-0.07,0.96
507,-6.29,17.92,-57.69,0.16,-0.07,0.99
508,-5.94,15.60,-58.14,0.15,-0.08,0.99
509,-6.05,14.96,-58.35,0.15,-0.07,0.98
510,-6.64,16.00,-58.21,0.15,-0.08,0.97
511,-10.35,24.03,-57.08,0.19,-0.08,0.94
512,-10.06,20.72,-55.77,0.11,-0.06,1.01
513,-9.18,12.20,-53.91,0.10,-0.07,1.03
514,-8.67,11.56,-51.40,0.12,-0.07,1.01
515,-7.86,19.54,-49.89,0.18,-0.06,1.00
516,-7.21,22.49,-49.69,0.18,-0.06,1.01
517,-6.23,22.55,-50.00,0.18,-0.06,1.01
518,-5.42,24.24,-49.25,0.17,-0.05,1.01
519,-5.11,24.18,-48.44,0.16,-0.05,1.00
520,-5.28,22.12,-48.72,0.16,-0.05,0.99
521,-6.26,21.59,-49.08,0.18,-0.03,0.98
522,-7.53,20.61,-49.98,0.19,-0.03,0.96
523,-8.60,17.71,-51.33,0.18,-0.03,0.98
524,-9.34,16.03,-52.15,0.18,-0.03,0.97
525,-10.11,16.17,-52.53,0.18,-0.04,0.98
526,-11.11,16.41,-53.11,0.17,-0.04,0.99
527,-11.74,16.49,-53.34,0.16,-0.04,0.99
528,-12.20,17.54,-52.32,0.16,-0.05,0.99
529,-12.05,18.41,-51.97,0.15,-0.05,1.00
530,-12.31,20.24,-51.04,0.14,-0.04,1.00
531,-11.85,21.71,-49.51,0.13,-0.05,1.01
532,-11.37,22.70,-47.80,0.13,-0.06,1.01
533,-11.04,24.34,-46.84,0.13,-0.06,1.02
534,-10.53,24.99,-45.83,0.12,-0.06,1.02
535,-9.07,26.21,-44.90,0.11,-0.07,1.01
536,-10.38,25.39,-44.32,0.10,-0.07,1.02
537,-10.58,24.89,-44.26,0.10,-0.06,1.03
538,-10.26,25.01,-43.69,0.11,-0.06,1.03
539,-10.37,25.07,-42.85,0.11,-0.06,1.02
540,-10.79,24.81,-42.76,0.12,-0.06,1.03
541,-11.24,24.58,-43.54,0.12,-0.06,1.03
542,-10.75,24.61,-44.02,0.12,-0.07,1.03
543,-10.61,25.30,-43.40,0.11,-0.07,1.03
544,-10.78,26.95,-42.56,0.09,-0.07,1.03
545,-10.58,27.91,-42.05,0.09,-0.06,1.02
546,-10.76,28.20,-41.40,0.08,-0.06,1.01
547,-10.98,28.50,-40.98,0.07,-0.06,1.01
548,-10.79,27.18,-40.44,0.07,-0.07,1.03
549,-10.72,26.47,-40.31,0.06,-0.07,1.03
550,-9.66,25.71,-39.82,0.04,-0.07,1.03
551,-9.63,24.98,-38.55,0.03,-0.06,1.03
552,-9.80,25.25,-37.56,0.04,-0.07,1.03
553,-8.98,26.24,-36.95,0.03,-0.06,1.04
554,-7.66,26.09,-36.31,0.02,-0.06,1.03
555,-7.71,25.53,-34.67,0.01,-0.06,1.02
556,-8.29,26.00,-33.34,0.02,-0.05,1.02
557,-8.69,25.88,-33.08,0.03,-0.05,1.01
558,-9.31,24.84,-34.11,0.04,-0.05,1.01
559,-9.65,23.60,-34.82,0.03,-0.05,1.00
560,-10.72,21.57,-34.98,0.01,-0.04,1.00
561,-11.51,18.67,-35.31,0.00,-0.04,1.00
562,-12.60,16.56,-35.57,0.01,-0.05,1.01
563,-13.11,15.42,-35.92,0.01,-0.06,1.01
564,-13.18,13.25,-36.06,-0.01,-0.07,1.03
565,-13.24,12.08,-35.27,-0.03,-0.07,1.04
566,-12.75,12.75,-33.65,-0.03,-0.07,1.04
567,-12.52,13.22,-32.49,-0.02,-0.07,1.05
568,-11.71,13.57,-31.37,-0.03,-0.08,1.05
569,-10.93,14.24,-29.57,-0.03,-0.07,1.05
570,-10.96,15.10,-27.74,-0.03,-0.08,1.05
571,-10.55,15.08,-26.21,-0.02,-0.07,1.06
572,-9.88,14.58,-24.98,-0.03,-0.07,1.05
573,-9.94,15.25,-23.79,-0.02,-0.07,1.04
574,-10.38,15.18,-22.85,-0.02,-0.07,1.03
575,-11.05,13.95,-22.50,-0.03,-0.08,1.04
576,-11.51,12.46,-22.29,-0.02,-0.08,1.04
577,-11.85,10.73,-22.64,-0.02,-0.09,1.05
578,-12.29,8.34,-23.27,-0.02,-0.08,1.06
579,-12.03,6.20,-23.22,-0.03,-0.09,1.07
580,-11.80,4.89,-22.92,-0.03,-0.09,1.08
581,-11.45,4.44,-22.32,-0.03,-0.09,1.08
582,-10.98,4.79,-21.18,-0.03,-0.10,1.08
583,-10.93,5.83,-20.34,-0.03,-0.10,1.07
584,-10.31,5.54,-19.13,-0.03,-0.10,1.07
585,-9.82,5.48,-17.28,-0.05,-0.11,1.08
586,-9.30,5.47,-15.11,-0.04,-0.11,1.08
587,-8.69,6.38,-13.25,-0.04,-0.11,1.09
588,-7.74,7.45,-11.62,-0.02,-0.12,1.10
589,-6.70,9.02,-10.14,-0.02,-0.11,1.09
590,-5.89,10.03,-8.85,-0.00,-0.11,1.09
591,-5.16,10.81,-8.27,0.00,-0.10,1.07
592,-4.76,10.96,-8.03,0.01,-0.10,1.07
593,-4.55,10.49,-8.44,0.00,-0.10,1.06
594,-4.47,8.84,-8.98,-0.00,-0.09,1.06
595,-4.89,7.62,-9.44,-0.01,-0.09,1.04
596,-5.51,6.23,-9.21,-0.02,-0.09,1.05
597,-5.82,4.67,-8.87,-0.02,-0.10,1.06
598,-6.08,2.35,-9.07,-0.02,-0.10,1.06
599,-5.97,1.25,-8.78,-0.01,-0.10,1.07
600,-6.23,1.44,-8.14,-0.01,-0.11,1.06
601,-6.09,2.14,-7.79,-0.00,-0.10,1.06
602,-5.76,2.84,-7.33,-0.01,-0.10,1.07
603,-5.69,2.95,-6.44,-0.02,-0.11,1.07
604,-5.56,3.47,-5.76,-0.02,-0.11,1.08
605,-5.33,3.36,-5.40,-0.02,-0.12,1.08
606,-4.98,2.35,-4.67,-0.02,-0.12,1.08
607,-4.67,2.06,-3.89,-0.03,-0.12,1.08
608,-4.03,3.02,-2.87,-0.03,-0.12,1.08
609,-3.39,3.74,-1.47,-0.02,-0.11,1.08
610,-2.72,4.50,-0.26,-0.02,-0.11,1.07
611,-2.34,5.22,0.31,-0.02,-0.11,1.08
612,-1.88,5.91,0.72,-0.01,-0.10,1.06
613,-1.98,5.54,1.19,-0.02,-0.10,1.05
614,-2.32,4.26,1.27,-0.02,-0.10,1.06
615,-2.79,3.24,1.13,-0.01,-0.10,1.06
616,-2.98,2.06,0.99,-0.01,-0.10,1.07
617,-3.37,1.07,0.72,-0.01,-0.11,1.06
618,-3.47,0.11,0.95,-0.02,-0.11,1.07
619,-3.62,0.53,1.68,-0.02,-0.12,1.07
620,-3.44,1.60,2.95,-0.01,-0.12,1.08
621,-2.46,3.02,3.59,-0.01,-0.12,1.09
622,-1.53,3.76,3.85,-0.01,-0.11,1.09
623,-1.30,4.70,4.70,-0.01,-0.12,1.08
624,-1.51,5.11,5.11,-0.01,-0.11,1.07
625,-1.62,4.66,5.28,-0.02,-0.11,1.07
626,-1.22,3.57,5.13,-0.01,-0.11,1.08
627,-1.51,2.63,4.75,-0.01,-0.12,1.07
628,-1.60,1.77,5.04,-0.01,-0.11,1.07
629,-1.66,0.14,5.30,-0.02,-0.11,1.07
630,-1.44,0.05,5.69,-0.01,-0.10,1.07
631,-1.53,1.19,6.03,-0.01,-0.11,1.07
632,-1.91,1.86,6.00,-0.00,-0.11,1.06
633,-2.32,2.06,6.24,-0.01,-0.11,1.06
634,-2.18,0.87,6.47,-0.01,-0.10,1.07
635,-2.24,-0.93,6.64,-0.02,-0.11,1.08
636,-2.21,-2.29,6.60,-0.01,-0.12,1.07
637,-2.38,-3.37,6.53,-0.01,-0.13,1.08
638,-2.35,-3.24,6.75,-0.00,-0.13,1.08
639,-2.03,-2.56,7.24,-0.00,-0.12,1.09
640,-1.85,-2.18,7.65,-0.00,-0.12,1.08
641,-1.34,-2.06,8.21,-0.01,-0.11,1.09
642,-1.36,-2.18,8.43,-0.01,-0.12,1.09
643,-1.25,-2.20,8.66,-0.00,-0.12,1.07
644,-1.63,-2.70,8.93,0.00,-0.12,1.08
645,-1.85,-3.37,9.36,-0.00,-0.12,1.09
646,-1.68,-3.86,9.69,0.00,-0.12,1.08
647,-1.16,-4.37,9.63,0.01,-0.13,1.08
648,-0.92,-4.29,9.83,0.01,-0.13,1.07
649,-0.75,-3.73,10.11,0.01,-0.13,1.09
650,-0.03,-2.96,10.23,0.01,-0.14,1.09
651,0.50,-3.04,10.17,0.02,-0.13,1.10
652,0.99,-2.24,10.37,0.02,-0.13,1.09
653,1.24,-2.06,10.53,0.02,-0.13,1.09
654,1.28,-1.50,10.93,0.02,-0.13,1.08
655,1.57,-0.85,11.10,0.03,-0.12,1.07
656,1.74,0.17,11.22,0.02,-0.12,1.07
657,1.25,0.55,11.31,0.02,-0.12,1.06
658,0.50,0.52,11.53,0.02,-0.12,1.06
659,0.14,0.18,11.91,0.01,-0.12,1.05
660,-0.44,0.00,11.79,0.02,-0.12,1.06
661,-0.49,-0.95,12.02,0.01,-0.13,1.06
662,-0.53,-1.56,12.09,0.01,-0.13,1.06
663,-0.60,-1.10,12.23,0.02,-0.12,1.07
664,-0.95,-0.34,11.97,0.02,-0.13,1.06
665,-1.07,-0.50,12.09,0.03,-0.12,1.06
666,-0.95,-0.63,11.76,0.02,-0.13,1.07
667,-0.44,-0.66,12.02,0.02,-0.13,1.08
668,0.14,-1.18,12.03,0.02,-0.13,1.08
669,0.66,-1.68,11.79,0.02,-0.13,1.07
670,1.10,-1.34,11.80,0.02,-0.13,1.07
671,1.60,-0.63,12.12,0.02,-0.13,1.07
