,gyro_x,gyro_y,gyro_z,acce_x,acce_y,acce_z
0,-9.34,-5.08,2.79,0.14,-0.19,1.01
1,-8.32,-5.01,3.80,0.13,-0.18,1.00
2,-7.54,-7.16,4.08,0.12,-0.18,1.00
3,-8.26,-6.17,4.40,0.13,-0.17,1.01
4,-9.94,-0.23,5.82,0.16,-0.17,1.01
5,-11.36,4.61,6.55,0.15,-0.18,0.99
6,-10.82,3.30,5.77,0.14,-0.18,0.99
7,-10.52,0.81,4.08,0.14,-0.18,1.00
8,-10.63,0.24,3.54,0.14,-0.18,0.99
9,-10.82,-0.23,2.96,0.13,-0.19,0.99
10,-11.02,-2.26,2.64,0.12,-0.20,0.99
11,-11.54,-3.56,2.56,0.12,-0.19,1.00
12,-12.00,-2.69,2.60,0.12,-0.20,0.99
13,-11.95,-1.18,2.85,0.12,-0.20,1.00
14,-11.83,-0.08,3.31,0.11,-0.20,1.01
15,-11.85,0.66,4.55,0.10,-0.19,1.01
16,-11.97,1.24,5.69,0.11,-0.19,1.03
17,-11.59,3.10,6.78,0.12,-0.18,1.01
18,-11.22,3.25,6.82,0.12,-0.19,1.02
19,-10.82,2.43,7.28,0.12,-0.18,1.02
20,-11.16,2.40,7.40,0.12,-0.19,1.02
21,-11.42,3.16,7.71,0.15,-0.20,1.02
22,-11.36,3.97,7.21,0.15,-0.21,1.03
23,-11.01,4.32,6.61,0.16,-0.21,1.01
24,-10.69,5.21,5.57,0.16,-0.21,1.03
25,-10.21,6.26,5.31,0.16,-0.21,1.03
26,-10.37,6.44,5.05,0.15,-0.21,1.02
27,-10.35,7.21,4.61,0.15,-0.22,1.03
28,-10.38,7.79,4.58,0.15,-0.22,1.04
29,-10.31,8.32,4.49,0.13,-0.21,1.03
30,-9.68,9.19,4.75,0.13,-0.22,1.04
31,-8.92,9.56,4.47,0.12,-0.22,1.05
32,-8.31,10.50,4.23,0.11,-0.22,1.04
33,-8.00,10.96,4.05,0.10,-0.21,1.04
34,-7.98,10.27,3.82,0.10,-0.22,1.05
35,-7.83,10.05,3.56,0.08,-0.22,1.03
36,-8.14,9.53,3.80,0.07,-0.23,1.03
37,-8.99,8.38,4.11,0.06,-0.22,1.02
38,-9.97,7.50,4.49,0.07,-0.23,1.02
39,-10.73,7.34,4.52,0.08,-0.22,1.03
40,-11.07,7.02,4.73,0.08,-0.22,1.03
41,-11.39,7.79,5.44,0.08,-0.22,1.03
42,-11.76,8.84,5.82,0.09,-0.22,1.02
43,-11.79,9.31,5.68,0.09,-0.23,1.03
44,-11.47,9.56,5.71,0.10,-0.22,1.04
45,-11.11,9.60,5.36,0.09,-0.23,1.04
46,-10.78,8.34,5.24,0.07,-0.23,1.04
47,-11.01,7.22,5.34,0.07,-0.23,1.03
48,-11.39,5.94,5.31,0.07,-0.24,1.02
49,-11.74,4.53,5.18,0.07,-0.24,1.02
50,-12.20,3.25,4.85,0.08,-0.24,1.01
51,-12.76,3.53,4.78,0.09,-0.24,1.02
52,-12.87,3.57,4.56,0.09,-0.25,1.04
53,-12.38,3.71,4.87,0.09,-0.25,1.05
54,-11.77,3.86,5.39,0.09,-0.26,1.05
55,-11.10,4.98,5.88,0.09,-0.26,1.06
56,-10.32,6.14,6.00,0.10,-0.26,1.06
57,-9.44,6.90,6.27,0.10,-0.26,1.06
58,-8.37,8.20,6.41,0.08,-0.26,1.05
59,-7.98,8.63,6.96,0.08,-0.26,1.06
60,-8.14,9.63,7.82,0.08,-0.25,1.05
61,-7.97,10.52,7.74,0.09,-0.25,1.05
62,-8.09,10.18,7.66,0.08,-0.25,1.04
63,-8.43,10.44,7.53,0.08,-0.25,1.04
64,-8.87,10.75,7.18,0.08,-0.24,1.02
65,-9.15,10.98,6.84,0.08,-0.24,1.01
66,-9.56,10.67,6.38,0.08,-0.25,1.01
67,-9.60,9.54,5.80,0.07,-0.25,1.01
68,-9.94,7.44,5.45,0.06,-0.25,1.01
69,-10.11,6.99,5.48,0.06,-0.25,1.02
70,-10.17,6.44,5.36,0.05,-0.25,1.02
71,-9.92,5.44,5.89,0.04,-0.26,1.03
72,-9.34,4.89,6.56,0.04,-0.26,1.04
73,-8.76,6.03,7.31,0.04,-0.26,1.04
74,-8.53,6.79,8.29,0.03,-0.26,1.03
75,-7.97,8.17,9.22,0.05,-0.25,1.03
76,-7.71,9.51,9.65,0.05,-0.26,1.02
77,-7.71,9.69,9.54,0.04,-0.26,1.01
78,-7.79,9.24,9.54,0.03,-0.25,1.01
79,-7.86,8.70,9.65,0.03,-0.25,1.01
80,-8.12,7.69,10.14,0.03,-0.25,1.01
81,-8.70,6.66,10.61,0.02,-0.24,1.00
82,-9.02,6.75,10.60,0.03,-0.25,0.99
83,-9.30,6.40,10.47,0.04,-0.24,0.99
84,-9.48,5.24,10.64,0.03,-0.24,1.00
85,-9.91,5.01,11.01,0.02,-0.25,1.00
86,-9.98,5.33,11.53,0.03,-0.25,0.99
87,-10.26,5.02,12.50,0.03,-0.24,1.00
88,-10.89,6.20,13.28,0.03,-0.25,0.99
89,-11.47,6.44,13.76,0.03,-0.24,1.00
90,-11.60,6.21,14.00,0.04,-0.25,0.99
91,-12.27,5.98,14.02,0.05,-0.25,0.98
92,-12.67,5.59,13.69,0.05,-0.25,0.99
93,-13.40,4.87,13.36,0.05,-0.26,0.99
94,-14.18,4.03,12.63,0.06,-0.26,0.99
95,-14.52,3.22,11.57,0.06,-0.27,0.99
96,-14.75,1.94,10.96,0.06,-0.27,1.00
97,-14.53,0.40,10.44,0.05,-0.28,1.00
98,-14.82,-0.67,10.23,0.05,-0.29,1.01
99,-14.46,0.21,10.75,0.04,-0.29,1.01
100,-14.35,0.66,11.51,0.03,-0.29,1.00
101,-14.70,0.98,12.40,0.02,-0.28,1.00
102,-15.15,1.68,13.11,0.02,-0.30,1.00
103,-15.63,3.36,13.62,0.02,-0.29,1.00
104,-16.21,3.16,13.86,0.02,-0.30,1.00
105,-16.20,0.78,13.48,-0.00,-0.30,1.01
106,-16.50,0.49,13.36,0.02,-0.31,1.01
107,-16.63,-0.56,13.44,0.01,-0.31,1.01
108,-16.81,-2.50,13.05,0.01,-0.32,1.01
109,-17.27,-2.37,13.37,0.02,-0.32,1.02
110,-17.50,-1.42,13.60,0.02,-0.32,1.03
111,-17.25,-1.48,13.74,0.02,-0.32,1.03
112,-16.92,-1.47,14.35,0.03,-0.32,1.03
113,-16.40,-0.58,14.85,0.02,-0.33,1.04
114,-16.35,0.55,15.66,0.02,-0.33,1.04
115,-16.50,1.60,16.20,0.03,-0.32,1.04
116,-16.17,2.03,16.17,0.03,-0.33,1.04
117,-15.80,1.18,15.56,0.02,-0.33,1.04
118,-15.18,0.72,15.34,0.02,-0.33,1.05
119,-14.78,0.41,15.18,0.02,-0.34,1.04
120,-14.26,0.69,15.30,0.02,-0.35,1.06
121,-13.92,1.21,15.65,0.01,-0.35,1.04
122,-12.69,0.35,15.85,0.00,-0.36,1.06
123,-12.08,0.53,16.14,-0.00,-0.35,1.05
124,-11.68,1.19,16.92,-0.01,-0.36,1.04
125,-11.44,0.85,17.76,-0.03,-0.36,1.05
126,-10.18,4.31,18.67,0.05,-0.39,1.09
127,-9.89,-1.71,18.53,-0.07,-0.37,1.04
128,-9.10,-1.04,19.10,-0.03,-0.37,1.04
129,-10.63,-2.44,19.53,-0.03,-0.35,1.04
130,-10.66,-3.36,20.20,-0.02,-0.35,1.04
131,-10.70,-1.30,20.76,-0.01,-0.34,1.04
132,-9.77,0.06,21.11,-0.01,-0.34,1.03
133,-9.50,-0.64,21.48,-0.02,-0.34,1.03
134,-9.56,-0.76,21.63,-0.01,-0.34,1.03
135,-9.88,-1.66,21.66,-0.01,-0.34,1.01
136,-10.23,-2.93,21.68,-0.00,-0.35,1.03
137,-10.00,-4.61,21.60,-0.00,-0.36,1.03
138,-9.68,-4.61,21.92,-0.00,-0.37,1.04
139,-8.87,-4.47,22.21,-0.00,-0.36,1.05
140,-7.33,-3.88,22.93,-0.01,-0.38,1.06
141,-6.37,-2.99,23.79,-0.02,-0.38,1.06
142,-5.22,-2.12,25.24,-0.03,-0.38,1.06
143,-4.38,-2.14,25.95,-0.04,-0.39,1.06
144,-3.31,-1.30,26.98,-0.04,-0.38,1.06
145,-2.23,-1.08,28.26,-0.04,-0.38,1.06
146,-1.40,-1.30,29.07,-0.04,-0.38,1.06
147,-0.38,-0.89,29.68,-0.05,-0.38,1.05
148,0.56,-0.85,30.70,-0.06,-0.38,1.04
149,0.53,-1.01,31.83,-0.06,-0.38,1.03
150,0.90,-1.63,32.89,-0.06,-0.38,1.02
151,0.73,-1.50,33.30,-0.04,-0.37,1.01
152,0.27,-1.19,32.76,-0.02,-0.36,0.99
153,-0.15,-2.20,32.12,-0.03,-0.36,0.99
154,-0.50,-3.63,31.89,-0.04,-0.36,0.99
155,-0.53,-4.31,32.60,-0.04,-0.36,0.99
156,-0.21,-6.06,32.93,-0.03,-0.36,1.00
157,0.05,-7.59,32.81,-0.02,-0.36,0.99
158,0.50,-7.86,32.69,-0.02,-0.36,0.99
159,0.84,-6.85,33.19,-0.02,-0.35,0.99
160,1.13,-6.06,33.91,-0.02,-0.35,0.98
161,0.99,-5.02,34.49,-0.02,-0.34,0.97
162,0.43,-5.10,35.04,-0.03,-0.34,0.97
163,0.15,-5.16,35.45,-0.03,-0.34,0.97
164,-0.21,-4.85,35.82,-0.03,-0.34,0.97
165,-0.85,-5.18,35.94,-0.02,-0.33,0.97
166,-2.03,-5.76,35.92,-0.02,-0.33,0.94
167,-3.47,-5.89,35.66,-0.02,-0.32,0.94
168,-4.73,-6.84,35.66,-0.02,-0.33,0.94
169,-5.76,-8.02,35.40,-0.01,-0.32,0.94
170,-6.66,-8.52,34.76,-0.00,-0.32,0.94
171,-8.11,-9.22,34.06,-0.00,-0.31,0.94
172,-9.54,-10.70,33.13,-0.01,-0.32,0.94
173,-10.40,-12.75,32.24,-0.01,-0.33,0.95
174,-11.45,-14.34,31.40,-0.00,-0.34,0.96
175,-12.15,-16.46,30.44,-0.00,-0.35,0.97
176,-12.34,-18.99,29.82,0.00,-0.35,0.99
177,-11.68,-20.02,29.83,0.00,-0.37,1.01
178,-10.81,-20.12,30.09,-0.01,-0.37,1.02
179,-10.37,-19.79,31.02,-0.00,-0.37,1.02
180,-10.00,-18.03,32.15,-0.01,-0.38,1.03
181,-9.39,-15.97,32.96,-0.00,-0.37,1.02
182,-9.08,-13.30,34.11,0.00,-0.38,1.01
183,-9.10,-10.49,35.28,-0.01,-0.37,1.01
184,-9.11,-7.79,36.60,-0.02,-0.37,1.00
185,-9.53,-6.21,37.22,-0.01,-0.36,0.99
186,-9.63,-4.85,38.17,-0.01,-0.36,0.98
187,-9.92,-3.88,38.50,-0.02,-0.36,0.98
188,-10.63,-4.09,39.21,-0.03,-0.35,0.99
189,-11.11,-4.99,39.13,-0.03,-0.35,0.98
190,-11.68,-7.57,38.20,-0.03,-0.35,0.99
191,-12.29,-10.85,36.76,-0.03,-0.35,0.99
192,-13.45,-13.48,35.47,-0.03,-0.36,0.99
193,-14.12,-16.55,34.50,-0.04,-0.37,0.99
194,-14.31,-21.02,33.57,-0.04,-0.37,1.00
195,-14.40,-23.80,32.96,-0.03,-0.37,1.00
196,-14.98,-24.56,33.07,-0.03,-0.36,1.01
197,-15.13,-24.72,33.39,-0.03,-0.37,1.01
198,-14.92,-24.95,34.40,-0.04,-0.37,1.01
199,-14.52,-24.26,35.82,-0.04,-0.38,1.02
200,-14.64,-22.12,37.71,-0.04,-0.38,1.01
201,-14.70,-20.66,39.28,-0.05,-0.37,1.00
202,-14.96,-19.73,39.95,-0.04,-0.38,1.01
203,-15.24,-18.63,40.93,-0.04,-0.38,1.02
204,-14.69,-17.98,41.62,-0.04,-0.38,1.02
205,-14.47,-18.78,41.85,-0.04,-0.38,1.01
206,-14.52,-19.68,41.73,-0.03,-0.38,1.00
207,-15.13,-21.79,41.25,-0.04,-0.38,0.99
208,-16.37,-24.08,40.66,-0.03,-0.37,0.98
209,-17.44,-26.96,39.77,-0.03,-0.37,0.98
210,-18.26,-30.14,38.58,-0.02,-0.38,0.99
211,-19.80,-33.60,37.30,-0.02,-0.38,0.98
212,-20.50,-36.31,36.50,-0.02,-0.39,0.98
213,-21.18,-39.05,36.61,-0.04,-0.39,1.00
214,-20.53,-40.99,37.57,-0.04,-0.40,1.01
215,-20.27,-41.54,39.37,-0.04,-0.41,1.01
216,-19.60,-41.71,41.30,-0.03,-0.41,1.01
217,-19.50,-39.65,43.01,-0.01,-0.42,1.01
218,-19.08,-37.83,44.18,-0.01,-0.42,1.00
219,-19.18,-37.01,45.24,-0.01,-0.43,1.00
220,-19.57,-35.24,45.95,0.01,-0.42,1.00
221,-19.47,-32.79,46.53,0.02,-0.42,1.00
222,-18.89,-32.61,46.84,0.02,-0.44,1.00
223,-18.64,-36.38,45.77,0.02,-0.44,1.00
224,-18.56,-40.23,45.16,0.02,-0.43,1.00
225,-18.93,-43.36,43.89,0.03,-0.44,0.99
226,-19.45,-45.89,43.60,0.02,-0.44,0.99
227,-20.26,-46.26,43.89,0.03,-0.44,0.98
228,-19.98,-46.12,44.17,0.04,-0.45,0.98
229,-19.62,-46.50,44.11,0.04,-0.46,1.00
230,-19.59,-46.21,44.37,0.05,-0.47,1.01
231,-19.44,-44.53,44.87,0.06,-0.47,1.01
232,-18.85,-43.80,45.33,0.06,-0.48,1.01
233,-17.60,-42.78,46.02,0.06,-0.48,1.01
234,-17.04,-40.47,46.49,0.07,-0.47,1.00
235,-15.27,-39.91,46.82,0.06,-0.49,1.01
236,-15.01,-37.05,48.24,0.07,-0.49,1.02
237,-14.05,-35.44,49.60,0.06,-0.50,1.02
238,-12.61,-34.95,50.56,0.08,-0.51,1.03
239,-11.21,-35.13,50.63,0.08,-0.50,1.02
240,-10.17,-36.76,50.31,0.10,-0.51,1.02
241,-9.16,-38.29,49.62,0.11,-0.51,1.04
242,-8.27,-40.00,48.60,0.13,-0.51,1.03
243,-7.95,-41.50,47.57,0.13,-0.51,1.02
244,-7.73,-43.36,46.23,0.14,-0.50,1.02
245,-7.74,-43.36,45.31,0.14,-0.52,1.02
246,-7.63,-41.65,44.55,0.15,-0.51,1.02
247,-7.62,-40.11,43.86,0.15,-0.51,1.01
248,-6.50,-39.13,44.18,0.14,-0.52,1.03
249,-4.75,-37.89,44.92,0.13,-0.52,1.03
250,-4.31,-35.24,45.94,0.13,-0.53,1.02
251,-2.95,-33.37,46.96,0.12,-0.52,1.02
252,-1.97,-32.35,47.98,0.12,-0.53,1.02
253,-0.96,-30.26,48.50,0.13,-0.53,1.05
254,-0.41,-28.26,49.25,0.13,-0.54,1.01
255,-0.09,-27.95,49.11,0.14,-0.54,1.02
256,0.38,-27.13,49.02,0.14,-0.54,1.02
257,0.47,-26.18,48.81,0.14,-0.53,1.00
258,0.38,-25.62,47.54,0.15,-0.54,0.98
259,0.47,-26.02,46.55,0.15,-0.54,0.99
260,0.81,-26.44,45.48,0.14,-0.54,0.99
261,1.15,-27.85,44.24,0.14,-0.54,1.01
262,1.04,-30.85,43.24,0.14,-0.55,1.00
263,1.31,-32.92,42.37,0.15,-0.53,0.98
264,1.51,-34.99,41.50,0.14,-0.54,1.00
265,2.26,-36.67,40.60,0.15,-0.54,1.01
266,3.13,-36.60,40.32,0.15,-0.53,1.00
267,3.91,-35.31,40.17,0.16,-0.53,1.01
268,4.93,-33.57,40.73,0.15,-0.53,1.01
269,5.73,-29.79,42.02,0.16,-0.53,1.01
270,6.81,-26.00,43.16,0.17,-0.53,1.00
271,7.50,-22.90,43.68,0.17,-0.53,1.00
272,7.85,-20.61,43.85,0.16,-0.53,0.98
273,8.06,-18.61,43.77,0.17,-0.53,0.98
274,8.37,-18.76,42.95,0.16,-0.53,0.99
275,8.46,-20.24,42.29,0.15,-0.53,0.98
276,8.70,-22.44,40.99,0.16,-0.53,0.98
277,9.05,-24.41,39.98,0.16,-0.53,0.99
278,9.21,-26.35,39.10,0.15,-0.53,0.99
279,9.31,-28.32,38.15,0.16,-0.54,0.98
280,9.56,-30.05,37.36,0.15,-0.53,0.98
281,9.11,-30.53,36.66,0.15,-0.52,0.99
282,9.15,-30.05,36.41,0.15,-0.52,0.99
283,9.37,-29.37,36.06,0.15,-0.52,1.01
284,9.98,-28.87,35.92,0.15,-0.53,1.01
285,10.24,-28.90,36.12,0.14,-0.52,1.01
286,10.66,-29.33,36.15,0.14,-0.52,1.01
287,10.69,-28.81,35.92,0.15,-0.52,1.01
288,10.66,-28.49,35.57,0.15,-0.52,1.00
289,10.81,-28.34,35.88,0.15,-0.52,1.00
290,10.40,-27.89,36.02,0.16,-0.53,0.99
291,10.20,-27.36,35.01,0.16,-0.52,0.98
292,9.85,-28.40,34.08,0.16,-0.51,0.97
293,8.96,-29.45,33.76,0.15,-0.50,0.97
294,8.37,-31.45,32.66,0.15,-0.49,0.95
295,8.49,-32.79,31.34,0.14,-0.49,0.98
296,10.15,-26.56,33.05,0.17,-0.51,0.95
297,6.55,-38.12,30.35,0.14,-0.51,1.00
298,7.98,-42.92,29.53,0.17,-0.52,1.02
299,6.34,-28.08,31.45,0.21,-0.51,1.01
300,8.06,-17.73,32.95,0.19,-0.54,1.02
301,11.08,-21.86,32.00,0.16,-0.54,1.05
302,12.99,-28.58,30.15,0.17,-0.54,1.05
303,14.95,-30.56,29.92,0.17,-0.54,1.04
304,14.37,-32.27,30.15,0.17,-0.54,1.02
305,14.72,-37.07,29.53,0.16,-0.53,1.01
306,14.38,-41.30,28.69,0.18,-0.52,1.02
307,14.41,-43.40,27.42,0.20,-0.51,1.00
308,14.23,-42.03,26.58,0.20,-0.51,1.00
309,14.24,-40.70,26.44,0.21,-0.52,1.00
310,13.56,-37.94,26.03,0.22,-0.51,0.99
311,12.72,-37.13,25.34,0.23,-0.51,0.99
312,12.23,-35.39,25.01,0.24,-0.51,0.99
313,11.62,-33.18,24.53,0.24,-0.50,0.98
314,11.74,-31.36,24.26,0.25,-0.50,0.99
315,11.88,-31.44,23.30,0.24,-0.50,1.00
316,12.53,-32.56,22.67,0.25,-0.50,0.99
317,12.34,-33.74,22.08,0.24,-0.49,0.99
318,12.15,-35.37,21.15,0.25,-0.50,1.00
319,12.26,-34.96,20.27,0.27,-0.50,1.00
320,13.02,-35.62,18.85,0.27,-0.50,1.01
321,13.34,-37.07,16.85,0.27,-0.50,0.99
322,13.69,-37.92,15.27,0.26,-0.50,1.00
323,13.89,-38.06,14.05,0.26,-0.49,0.99
324,14.40,-39.68,13.01,0.25,-0.49,0.99
325,14.34,-40.93,12.44,0.25,-0.48,0.98
326,13.92,-40.66,11.37,0.28,-0.48,0.98
327,13.73,-39.83,10.29,0.29,-0.47,0.97
328,13.45,-40.52,8.82,0.30,-0.47,0.97
329,13.36,-40.95,7.83,0.31,-0.46,0.98
330,13.48,-40.66,6.90,0.33,-0.46,0.98
331,13.82,-40.15,6.38,0.33,-0.45,0.98
332,14.15,-38.60,5.69,0.34,-0.45,0.97
333,14.41,-36.15,5.56,0.35,-0.46,0.97
334,14.89,-34.58,5.40,0.35,-0.46,0.97
335,15.53,-31.95,5.28,0.35,-0.47,0.97
336,16.40,-29.77,4.72,0.36,-0.47,0.98
337,17.73,-28.27,4.06,0.35,-0.47,0.99
338,19.13,-28.23,2.98,0.35,-0.48,1.00
339,20.47,-28.37,1.48,0.35,-0.47,0.99
340,21.21,-28.72,-0.44,0.35,-0.47,0.98
341,21.80,-29.51,-2.49,0.34,-0.46,0.95
342,21.80,-30.64,-4.63,0.34,-0.45,0.96
343,22.03,-32.05,-6.69,0.32,-0.45,0.95
344,21.86,-33.86,-8.40,0.31,-0.44,0.93
345,21.45,-36.23,-10.21,0.31,-0.44,0.93
346,21.16,-36.43,-11.04,0.30,-0.43,0.94
347,20.55,-37.11,-11.21,0.30,-0.43,0.92
348,20.46,-39.31,-11.31,0.30,-0.43,0.93
349,20.20,-37.56,-10.63,0.34,-0.42,0.92
350,20.12,-30.82,-9.71,0.38,-0.42,0.91
351,20.00,-24.50,-9.13,0.39,-0.41,0.91
352,20.34,-20.43,-9.36,0.41,-0.41,0.92
353,20.49,-15.40,-9.77,0.41,-0.41,0.91
354,20.85,-13.63,-10.31,0.40,-0.41,0.91
355,21.15,-13.24,-11.30,0.40,-0.41,0.91
356,20.79,-12.78,-12.52,0.39,-0.40,0.90
357,20.47,-16.27,-14.70,0.38,-0.40,0.90
358,20.06,-19.73,-17.36,0.38,-0.41,0.91
359,19.98,-22.84,-20.06,0.37,-0.41,0.90
360,18.76,-26.81,-23.01,0.36,-0.41,0.90
361,18.21,-29.59,-25.45,0.35,-0.41,0.89
362,16.95,-30.29,-27.01,0.36,-0.41,0.88
363,16.12,-30.21,-27.97,0.36,-0.40,0.89
364,15.60,-30.73,-27.92,0.35,-0.41,0.89
365,15.27,-29.56,-27.10,0.37,-0.42,0.90
366,15.65,-25.11,-25.54,0.38,-0.41,0.92
367,16.20,-19.53,-23.57,0.40,-0.41,0.92
368,17.18,-14.31,-21.13,0.41,-0.42,0.92
369,17.47,-8.96,-19.18,0.42,-0.41,0.92
370,18.50,-2.46,-17.57,0.46,-0.41,0.92
371,19.28,4.50,-16.98,0.47,-0.40,0.91
372,19.53,8.06,-17.40,0.48,-0.40,0.91
373,19.40,8.95,-18.87,0.48,-0.40,0.90
374,19.28,7.79,-22.27,0.49,-0.39,0.89
375,18.64,4.92,-26.53,0.48,-0.39,0.88
376,17.63,-0.03,-31.15,0.47,-0.38,0.87
377,16.55,-5.34,-35.59,0.44,-0.38,0.87
378,14.99,-9.05,-38.78,0.43,-0.39,0.87
379,13.62,-12.29,-40.99,0.41,-0.39,0.88
380,12.78,-13.11,-42.17,0.40,-0.40,0.89
381,12.18,-11.77,-42.02,0.39,-0.39,0.89
382,12.44,-9.54,-41.01,0.38,-0.39,0.90
383,13.13,-6.52,-39.42,0.38,-0.39,0.91
384,14.11,-2.89,-37.25,0.39,-0.39,0.92
385,15.19,0.95,-35.71,0.41,-0.39,0.92
386,16.12,4.63,-35.42,0.42,-0.39,0.92
387,17.04,6.03,-35.45,0.42,-0.38,0.92
388,18.02,6.43,-34.96,0.41,-0.37,0.93
389,18.38,7.02,-35.16,0.43,-0.37,0.91
390,18.20,7.66,-36.18,0.45,-0.36,0.91
391,17.63,7.76,-38.90,0.48,-0.34,0.89
392,16.87,6.75,-42.23,0.48,-0.34,0.89
393,16.00,3.53,-45.92,0.48,-0.34,0.89
394,15.05,-1.50,-49.54,0.47,-0.34,0.89
395,14.06,-4.55,-52.26,0.46,-0.33,0.89
396,13.01,-5.51,-54.70,0.47,-0.33,0.89
397,11.91,-4.82,-56.12,0.47,-0.32,0.89
398,10.93,-3.01,-56.89,0.45,-0.34,0.90
399,11.53,-1.04,-55.69,0.43,-0.33,0.93
400,12.99,2.92,-53.65,0.43,-0.34,0.94
401,13.98,7.95,-51.83,0.44,-0.33,0.92
402,14.61,11.39,-50.49,0.43,-0.33,0.93
403,15.63,12.90,-50.02,0.43,-0.32,0.93
404,16.82,12.85,-49.92,0.41,-0.32,0.94
405,18.12,11.21,-49.85,0.40,-0.31,0.94
406,18.17,10.29,-50.21,0.40,-0.30,0.91
407,17.65,9.45,-51.82,0.41,-0.31,0.92
408,17.16,9.31,-51.98,0.39,-0.29,0.90
409,16.18,9.94,-52.49,0.39,-0.30,0.90
410,14.85,9.56,-52.63,0.40,-0.28,0.89
411,13.59,10.50,-52.66,0.41,-0.28,0.88
412,12.72,11.57,-52.75,0.43,-0.28,0.90
413,12.21,14.26,-53.08,0.45,-0.27,0.90
414,11.95,16.14,-53.36,0.44,-0.26,0.91
415,11.66,16.44,-54.05,0.43,-0.27,0.91
416,11.76,15.91,-54.20,0.41,-0.26,0.92
417,12.92,16.38,-53.65,0.40,-0.26,0.94
418,13.82,16.00,-53.18,0.39,-0.26,0.93
419,14.64,14.69,-53.07,0.39,-0.26,0.92
420,15.59,13.31,-53.05,0.39,-0.26,0.94
421,16.34,13.11,-53.16,0.39,-0.24,0.93
422,17.10,13.69,-53.02,0.40,-0.24,0.94
423,18.67,12.44,-53.47,0.41,-0.24,0.95
424,19.02,14.84,-53.77,0.42,-0.23,0.93
425,18.82,15.11,-53.97,0.41,-0.23,0.91
426,18.24,15.31,-54.37,0.42,-0.22,0.93
427,18.37,17.83,-54.38,0.43,-0.20,0.91
428,18.31,18.26,-55.21,0.42,-0.20,0.89
429,16.87,18.05,-55.89,0.43,-0.20,0.88
430,14.87,20.78,-56.09,0.43,-0.19,0.88
431,14.96,20.40,-56.85,0.42,-0.20,0.91
432,14.23,21.47,-56.96,0.42,-0.19,0.93
433,13.89,20.50,-57.05,0.40,-0.19,0.92
434,14.26,19.85,-57.54,0.39,-0.18,0.94
435,14.61,21.79,-57.15,0.40,-0.17,0.94
436,15.40,22.35,-56.90,0.39,-0.17,0.95
437,16.38,21.30,-56.53,0.38,-0.16,0.95
438,16.58,20.64,-56.12,0.39,-0.16,0.94
439,16.46,20.76,-56.21,0.40,-0.15,0.93
440,16.09,21.77,-56.95,0.42,-0.15,0.93
441,16.47,22.18,-58.44,0.41,-0.15,0.95
442,17.01,22.85,-59.92,0.39,-0.15,0.95
443,17.47,23.28,-60.92,0.37,-0.15,0.95
444,17.28,23.54,-60.85,0.34,-0.15,0.94
445,16.20,24.38,-59.56,0.33,-0.14,0.93
446,15.28,25.65,-58.37,0.33,-0.13,0.93
447,14.40,28.03,-57.30,0.34,-0.12,0.92
448,14.21,29.69,-56.24,0.35,-0.11,0.93
449,13.98,30.35,-55.82,0.35,-0.10,0.95
450,14.11,30.92,-55.19,0.35,-0.10,0.95
451,15.07,31.16,-55.40,0.36,-0.10,0.95
452,15.18,32.12,-55.77,0.37,-0.09,0.94
453,15.66,32.09,-56.87,0.36,-0.10,0.94
454,16.15,30.67,-58.17,0.34,-0.10,0.94
455,15.65,28.90,-58.34,0.31,-0.08,0.93
456,14.46,28.41,-57.74,0.31,-0.08,0.90
457,12.31,28.56,-57.48,0.31,-0.07,0.91
458,11.37,30.26,-57.56,0.32,-0.07,0.91
459,10.32,33.13,-56.84,0.32,-0.06,0.92
460,8.15,35.50,-55.54,0.31,-0.06,0.92
461,6.58,36.64,-54.87,0.32,-0.06,0.92
462,6.73,35.98,-54.92,0.31,-0.07,0.94
463,7.34,34.20,-54.90,0.30,-0.05,0.95
464,9.69,35.48,-54.84,0.31,-0.05,0.96
465,10.24,34.44,-55.19,0.30,-0.05,0.97
466,10.53,35.01,-55.28,0.30,-0.04,0.94
467,10.03,36.21,-55.51,0.31,-0.04,0.92
468,8.98,36.63,-55.98,0.29,-0.03,0.91
469,8.00,35.01,-55.97,0.28,-0.02,0.90
470,6.90,33.63,-56.43,0.27,-0.02,0.92
471,5.15,33.59,-56.90,0.28,-0.02,0.91
472,3.02,32.50,-57.21,0.27,-0.03,0.91
473,2.70,31.05,-58.06,0.26,-0.02,0.93
474,2.09,29.88,-58.89,0.26,-0.02,0.93
475,2.87,28.75,-59.66,0.24,-0.03,0.95
476,3.36,28.63,-59.48,0.22,-0.04,0.96
477,3.77,28.56,-58.87,0.20,-0.03,0.94
478,2.89,28.37,-58.02,0.20,-0.03,0.94
479,2.11,28.93,-57.45,0.18,-0.03,0.95
480,1.91,29.08,-56.32,0.18,-0.03,0.95
481,1.53,29.05,-55.44,0.16,-0.03,0.95
482,0.50,29.62,-53.92,0.16,-0.02,0.96
483,-0.09,30.00,-52.82,0.16,-0.02,0.94
484,-0.58,31.39,-51.69,0.17,-0.01,0.95
485,-0.26,30.76,-51.30,0.16,-0.01,0.94
486,-1.28,29.97,-51.19,0.17,-0.01,0.95
487,-1.63,29.13,-51.19,0.16,-0.00,0.94
488,-1.91,27.65,-50.85,0.15,-0.01,0.94
489,-2.52,27.40,-50.32,0.16,-0.00,0.94
490,-2.92,26.60,-50.32,0.16,0.01,0.94
491,-3.04,25.11,-50.66,0.16,0.01,0.95
492,-3.01,23.45,-51.28,0.15,0.01,0.95
493,-4.06,21.71,-51.25,0.14,0.01,0.94
494,-5.21,19.33,-51.02,0.15,0.00,0.95
495,-5.98,18.00,-50.95,0.17,0.00,0.96
496,-6.37,16.99,-51.53,0.17,-0.01,0.97
497,-6.32,16.46,-51.51,0.16,0.00,0.98
498,-6.08,17.21,-49.95,0.16,0.00,0.99
499,-5.86,19.48,-48.21,0.16,0.00,0.98
500,-5.60,21.62,-47.05,0.17,-0.00,0.99
501,-5.44,23.07,-45.60,0.17,0.00,0.99
502,-5.74,24.81,-44.84,0.17,-0.00,0.98
503,-5.85,25.47,-44.63,0.17,-0.00,0.99
504,-5.88,24.34,-44.72,0.17,-0.01,1.00
505,-6.14,23.27,-45.45,0.17,-0.01,1.00
506,-6.02,22.35,-46.66,0.16,-0.01,1.00
507,-6.12,21.08,-47.77,0.14,-0.01,0.99
508,-5.94,20.27,-48.11,0.13,-0.01,1.00
509,-6.32,19.50,-47.07,0.11,-0.01,1.00
510,-6.87,18.95,-45.47,0.11,-0.00,1.00
511,-7.47,20.43,-44.20,0.12,-0.00,1.01
512,-7.31,22.41,-43.25,0.13,-0.00,1.02
513,-7.08,23.88,-41.77,0.12,-0.00,1.00
514,-7.13,26.08,-40.03,0.13,0.01,1.01
515,-6.96,27.92,-38.98,0.13,0.01,1.01
516,-6.41,28.99,-38.82,0.14,0.01,1.01
517,-5.68,27.83,-40.05,0.14,0.02,1.02
518,-5.73,26.70,-40.98,0.13,0.01,1.00
519,-5.97,24.70,-41.88,0.11,0.02,1.00
520,-6.92,21.79,-43.36,0.10,0.02,0.99
521,-7.77,18.52,-44.60,0.08,0.02,0.99
522,-8.75,15.83,-44.93,0.06,0.01,1.00
523,-9.88,14.64,-44.14,0.06,0.01,1.01
524,-10.50,14.32,-43.44,0.05,0.01,1.01
525,-10.89,14.79,-42.87,0.05,0.01,1.03
526,-10.87,16.38,-42.15,0.04,0.01,1.03
527,-10.21,17.42,-40.31,0.03,0.00,1.04
528,-9.47,17.98,-38.38,0.02,-0.00,1.04
529,-9.02,19.18,-37.05,0.02,0.00,1.05
530,-9.08,19.11,-35.62,0.02,0.00,1.03
531,-9.08,19.44,-34.81,0.03,0.00,1.03
532,-9.34,19.05,-34.40,0.01,0.00,1.04
533,-9.53,17.74,-33.74,0.00,0.00,1.04
534,-10.14,16.40,-33.22,-0.01,0.00,1.04
535,-10.20,14.84,-32.38,-0.01,0.01,1.05
536,-10.17,12.61,-32.11,-0.01,0.00,1.04
537,-10.50,11.65,-32.17,-0.01,0.01,1.05
538,-10.53,11.13,-31.82,-0.02,0.00,1.05
539,-10.40,10.56,-30.82,-0.02,0.01,1.04
540,-11.02,10.40,-29.19,-0.02,0.01,1.05
541,-11.07,10.08,-28.03,-0.02,0.00,1.06
542,-10.99,9.36,-27.18,-0.02,0.01,1.07
543,-10.53,9.73,-26.15,-0.02,0.01,1.07
544,-10.23,10.92,-24.76,-0.02,-0.00,1.06
545,-10.00,11.51,-23.39,-0.03,-0.00,1.06
546,-9.76,12.11,-21.97,-0.02,-0.00,1.07
547,-9.53,11.74,-21.21,-0.02,-0.01,1.06
