,gyro_x,gyro_y,gyro_z,acce_x,acce_y,acce_z
0,1.88,-0.32,-15.15,0.11,0.14,1.00
1,1.51,-0.67,-15.47,0.11,0.14,1.00
2,0.72,0.85,-15.39,0.11,0.14,1.00
3,0.21,4.61,-14.96,0.14,0.13,1.00
4,0.02,6.56,-14.75,0.13,0.13,1.00
5,-0.08,6.96,-14.87,0.13,0.13,1.00
6,0.08,8.26,-14.89,0.13,0.12,1.00
7,0.03,8.69,-14.81,0.12,0.12,0.98
8,-0.23,8.08,-15.18,0.11,0.11,0.99
9,-0.31,6.81,-15.28,0.10,0.12,0.97
10,-0.40,6.17,-15.28,0.09,0.11,0.97
11,-0.73,6.05,-14.75,0.09,0.10,0.98
12,-1.56,5.95,-14.26,0.07,0.10,0.97
13,-2.20,6.24,-13.56,0.07,0.10,0.97
14,-3.08,5.48,-12.63,0.06,0.10,0.96
15,-3.47,4.79,-11.95,0.06,0.11,0.96
16,-4.24,3.77,-11.21,0.06,0.11,0.97
17,-4.78,2.90,-10.50,0.06,0.11,0.98
18,-4.95,2.40,-10.23,0.07,0.11,0.96
19,-5.13,1.71,-10.49,0.08,0.11,0.96
20,-5.18,0.70,-11.02,0.08,0.12,0.97
21,-5.53,-0.61,-11.56,0.08,0.12,0.96
22,-5.89,-2.29,-11.77,0.08,0.12,0.95
23,-6.67,-3.50,-12.20,0.08,0.13,0.97
24,-7.44,-5.34,-12.75,0.09,0.12,0.97
25,-7.94,-6.12,-13.10,0.09,0.12,0.97
26,-8.34,-6.35,-13.15,0.08,0.12,0.98
27,-9.01,-6.27,-13.08,0.08,0.12,0.98
28,-9.59,-6.79,-12.67,0.07,0.12,0.98
29,-9.86,-7.10,-12.09,0.05,0.10,0.98
30,-9.79,-7.36,-11.40,0.05,0.11,1.00
31,-9.77,-7.40,-10.87,0.05,0.11,0.99
32,-9.42,-7.18,-10.41,0.06,0.11,0.99
33,-9.08,-7.02,-9.98,0.06,0.11,1.00
34,-9.19,-6.96,-9.80,0.05,0.11,0.99
35,-8.95,-7.53,-9.82,0.06,0.11,0.99
36,-9.24,-8.11,-9.68,0.05,0.11,1.00
37,-9.74,-7.50,-9.48,0.06,0.10,1.00
38,-9.69,-7.60,-9.24,0.06,0.10,1.00
39,-10.23,-7.44,-9.39,0.07,0.11,1.00
40,-10.46,-7.11,-9.45,0.07,0.11,1.01
41,-10.29,-8.11,-9.57,0.07,0.10,1.02
42,-10.46,-8.37,-9.80,0.06,0.10,1.02
43,-10.40,-9.11,-9.54,0.05,0.10,1.02
44,-10.32,-9.82,-9.08,0.06,0.09,1.04
45,-10.27,-9.44,-8.93,0.08,0.09,1.03
46,-9.74,-8.11,-8.82,0.08,0.08,1.03
47,-9.59,-6.87,-8.41,0.08,0.09,1.04
48,-9.73,-6.18,-8.21,0.08,0.09,1.04
49,-9.44,-5.57,-7.71,0.09,0.10,1.05
50,-9.21,-4.09,-7.56,0.09,0.09,1.04
51,-9.36,-3.82,-7.56,0.09,0.09,1.04
52,-9.42,-2.96,-7.25,0.09,0.10,1.03
53,-9.65,-2.99,-6.99,0.09,0.09,1.04
54,-9.88,-1.85,-7.01,0.10,0.10,1.03
55,-10.03,-0.70,-7.50,0.11,0.10,1.04
56,-10.21,-0.47,-8.00,0.13,0.09,1.04
57,-10.43,-0.35,-8.58,0.12,0.08,1.04
58,-10.67,-0.09,-9.01,0.11,0.08,1.04
59,-10.93,0.44,-8.98,0.12,0.08,1.05
60,-11.18,0.17,-9.11,0.10,0.08,1.05
61,-11.36,0.46,-8.98,0.09,0.07,1.06
62,-11.24,2.09,-8.41,0.10,0.07,1.04
63,-11.07,3.15,-8.08,0.08,0.07,1.06
64,-11.21,4.56,-7.57,0.08,0.07,1.04
65,-11.01,5.39,-7.07,0.07,0.08,1.03
66,-10.63,4.17,-6.70,0.06,0.08,1.03
67,-10.32,3.66,-6.41,0.07,0.08,1.03
68,-10.43,4.05,-5.95,0.06,0.08,1.03
69,-10.76,3.44,-5.56,0.05,0.07,1.03
70,-11.25,3.51,-5.40,0.06,0.07,1.02
71,-11.82,3.01,-5.24,0.07,0.07,1.02
72,-12.38,1.88,-4.90,0.07,0.07,1.03
73,-13.04,1.83,-5.01,0.08,0.07,1.03
74,-13.31,1.68,-4.50,0.08,0.07,1.05
75,-13.54,2.27,-4.23,0.09,0.07,1.04
76,-13.59,3.34,-4.02,0.10,0.07,1.05
77,-13.10,4.47,-4.14,0.10,0.07,1.06
78,-13.15,5.33,-4.18,0.11,0.07,1.06
79,-12.89,5.69,-4.76,0.12,0.07,1.05
80,-12.66,5.98,-5.27,0.12,0.07,1.07
81,-11.91,6.17,-5.76,0.12,0.06,1.07
82,-12.15,5.08,-6.52,0.12,0.06,1.07
83,-11.86,5.80,-6.96,0.12,0.05,1.08
84,-11.48,5.74,-7.40,0.11,0.05,1.08
85,-11.25,5.80,-7.04,0.10,0.05,1.09
86,-10.98,6.18,-6.78,0.10,0.04,1.09
87,-10.61,6.70,-6.52,0.09,0.05,1.07
88,-10.43,7.51,-6.02,0.08,0.04,1.08
89,-9.98,8.63,-5.56,0.07,0.05,1.08
90,-9.89,9.21,-5.45,0.07,0.05,1.08
91,-9.85,8.95,-5.31,0.06,0.05,1.08
92,-9.48,8.46,-5.37,0.06,0.05,1.07
93,-9.13,7.97,-5.30,0.06,0.03,1.07
94,-9.53,7.13,-5.36,0.07,0.04,1.07
95,-8.58,13.24,-5.59,0.08,0.03,1.16
96,-5.27,-4.90,-8.98,0.03,0.03,1.19
97,-5.51,12.05,-6.52,0.12,0.02,1.03
98,-9.37,30.11,-4.08,0.07,0.05,1.03
99,-14.81,16.26,-4.35,-0.00,0.03,1.07
100,-14.90,2.06,-5.42,0.02,0.02,1.09
101,-10.27,-5.25,-6.56,0.05,0.02,1.08
102,-9.05,-3.02,-6.29,0.06,0.03,1.07
103,-9.71,6.78,-4.66,0.05,0.04,1.03
104,-10.46,13.53,-2.90,0.03,0.05,1.03
105,-9.51,16.89,-1.59,0.03,0.04,1.02
106,-8.20,17.97,-1.08,0.02,0.04,1.01
107,-7.53,16.70,-1.08,0.03,0.04,1.00
108,-8.35,16.34,-1.40,0.03,0.05,1.00
109,-9.37,14.34,-1.94,0.02,0.04,1.00
110,-10.40,11.05,-2.99,0.03,0.04,1.00
111,-10.72,7.36,-3.86,0.02,0.03,1.01
112,-11.63,2.52,-4.90,0.01,0.02,1.01
113,-12.70,-1.31,-5.36,0.01,0.02,1.00
114,-13.60,-2.46,-5.48,0.02,0.02,1.00
115,-14.27,-2.73,-4.84,0.01,0.01,1.02
116,-15.24,-2.90,-4.14,0.02,-0.00,1.00
117,-15.10,-2.82,-3.54,0.02,0.00,1.01
118,-14.24,-3.33,-3.01,0.01,-0.00,1.02
119,-14.76,-1.08,-2.18,0.02,-0.01,1.03
120,-14.23,-1.05,-1.37,0.01,-0.02,1.03
121,-14.06,-1.60,-0.89,0.03,-0.02,1.03
122,-14.34,-0.82,-0.46,0.04,-0.02,1.02
123,-14.15,-2.53,-1.07,0.03,-0.03,1.05
124,-13.65,-4.29,-1.54,0.06,-0.04,1.05
125,-14.52,-5.69,-2.06,0.05,-0.04,1.05
126,-15.31,-7.04,-2.08,0.05,-0.04,1.06
127,-15.51,-8.98,-2.35,0.06,-0.05,1.08
128,-14.90,-10.08,-2.32,0.05,-0.05,1.09
129,-14.09,-9.89,-1.88,0.05,-0.06,1.10
130,-13.30,-8.76,-1.36,0.06,-0.06,1.10
131,-12.52,-7.56,-0.93,0.06,-0.06,1.10
132,-11.22,-5.85,-0.20,0.06,-0.06,1.10
133,-10.34,-4.63,0.09,0.06,-0.06,1.10
134,-9.47,-4.61,0.44,0.05,-0.06,1.09
135,-9.24,-4.98,0.87,0.05,-0.06,1.08
136,-9.53,-4.98,1.05,0.06,-0.06,1.07
137,-9.82,-6.02,0.87,0.06,-0.07,1.07
138,-10.03,-7.50,0.73,0.07,-0.07,1.07
139,-10.11,-8.38,0.29,0.06,-0.08,1.07
140,-10.02,-8.66,0.49,0.06,-0.08,1.10
141,-9.28,-8.87,0.69,0.05,-0.08,1.08
142,-9.21,-8.90,0.95,0.05,-0.08,1.08
143,-9.53,-8.73,1.37,0.05,-0.07,1.07
144,-9.31,-8.24,1.79,0.05,-0.07,1.07
145,-8.84,-7.73,2.23,0.05,-0.06,1.05
146,-8.64,-8.23,2.09,0.05,-0.06,1.04
147,-9.13,-7.71,2.34,0.05,-0.05,1.04
148,-9.86,-7.54,2.12,0.05,-0.05,1.01
149,-10.20,-7.80,2.29,0.06,-0.06,1.01
150,-10.82,-9.74,2.29,0.04,-0.05,1.02
151,-11.28,-11.88,3.07,0.04,-0.06,1.03
152,-11.31,-11.94,3.68,0.04,-0.06,1.03
153,-11.40,-11.69,4.47,0.04,-0.06,1.04
154,-12.14,-10.66,5.05,0.05,-0.06,1.05
155,-11.37,-9.01,5.51,0.05,-0.06,1.04
156,-11.85,-9.69,5.47,0.05,-0.07,1.05
157,-11.89,-10.18,5.65,0.06,-0.07,1.04
158,-12.20,-11.01,5.83,0.05,-0.05,1.04
159,-12.24,-10.38,5.71,0.06,-0.06,1.04
160,-12.76,-10.32,5.91,0.06,-0.05,1.03
161,-12.93,-10.70,5.69,0.07,-0.07,1.04
162,-12.92,-10.55,5.94,0.08,-0.08,1.05
163,-12.11,-11.28,5.76,0.07,-0.05,1.07
164,-11.11,-9.88,5.91,0.08,-0.07,1.04
165,-11.65,-9.40,6.21,0.07,-0.07,1.04
166,-12.05,-9.44,7.10,0.07,-0.07,1.05
167,-10.90,-8.79,7.98,0.08,-0.06,1.05
168,-10.56,-6.90,8.44,0.06,-0.10,1.04
169,-10.69,-6.05,9.73,0.07,-0.07,1.06
170,-9.98,-5.89,10.15,0.07,-0.04,1.06
171,-11.66,-4.60,10.72,0.08,-0.07,1.04
172,-9.39,-0.56,10.53,0.06,-0.06,1.04
173,-11.07,0.32,10.92,0.07,-0.06,1.03
174,-10.27,-0.31,10.64,0.07,-0.07,1.04
175,-11.44,-2.81,9.94,0.07,-0.03,1.07
176,-10.15,-0.17,9.45,0.07,-0.05,1.03
177,-10.12,-1.42,8.96,0.06,-0.04,1.04
178,-10.40,-3.66,8.53,0.04,-0.07,1.03
179,-9.76,-7.63,8.31,0.05,-0.07,1.04
180,-13.98,-2.49,9.73,0.04,-0.05,1.04
181,-12.78,-1.83,10.43,0.03,-0.05,1.04
182,-13.69,-2.15,10.90,0.04,-0.07,1.04
183,-14.05,-0.37,11.92,0.05,-0.06,1.06
184,-11.51,-1.10,12.32,0.05,-0.08,1.07
185,-12.18,0.81,13.34,0.05,-0.08,1.08
186,-10.58,3.10,14.32,0.03,-0.08,1.07
187,-10.72,4.82,14.92,0.02,-0.08,1.07
188,-9.77,5.51,15.88,0.02,-0.08,1.08
189,-10.93,6.29,16.87,0.02,-0.07,1.06
190,-9.92,6.82,18.02,0.01,-0.07,1.02
191,-10.87,4.40,17.82,0.01,-0.07,1.05
192,-11.77,5.04,18.00,0.02,-0.06,1.03
193,-11.63,3.08,17.97,0.01,-0.07,1.04
194,-12.60,2.58,18.32,0.01,-0.06,1.01
195,-13.22,0.40,17.88,0.03,-0.06,1.02
196,-13.33,-0.11,17.44,0.02,-0.09,1.04
197,-14.18,-0.31,17.66,0.02,-0.08,1.04
198,-14.06,-0.29,17.73,0.02,-0.09,1.06
199,-13.54,2.85,18.75,0.03,-0.09,1.07
200,-13.97,1.71,18.98,0.03,-0.10,1.11
201,-13.94,5.24,20.23,0.03,-0.10,1.09
202,-12.60,5.62,21.04,0.02,-0.10,1.09
203,-11.88,6.37,21.63,0.02,-0.11,1.08
204,-12.20,8.20,22.67,0.02,-0.10,1.08
205,-12.15,8.47,23.19,0.01,-0.10,1.09
206,-11.59,6.64,23.02,0.02,-0.10,1.09
207,-11.42,6.53,23.22,0.01,-0.11,1.08
208,-11.65,6.87,23.79,0.02,-0.11,1.08
209,-11.27,5.68,23.76,0.01,-0.11,1.09
210,-11.65,5.63,24.47,0.02,-0.11,1.09
211,-11.71,6.41,25.01,0.01,-0.12,1.11
212,-11.44,7.18,25.51,0.01,-0.12,1.12
213,-11.24,4.84,25.91,0.02,-0.11,1.13
214,-10.56,7.27,26.35,0.02,-0.13,1.11
215,-9.48,6.92,26.98,0.00,-0.14,1.12
216,-9.08,6.43,27.36,0.00,-0.14,1.13
217,-7.86,5.80,27.69,0.01,-0.15,1.13
218,-7.63,7.18,28.03,0.02,-0.15,1.13
219,-7.36,8.64,28.95,0.01,-0.15,1.11
220,-6.46,7.91,29.76,-0.00,-0.13,1.14
221,-6.24,11.45,31.01,-0.02,-0.13,1.09
222,-6.64,9.05,31.91,-0.02,-0.15,1.11
223,-5.92,10.69,32.60,-0.01,-0.14,1.11
224,-5.59,12.49,33.53,-0.03,-0.14,1.10
225,-5.56,10.52,34.49,-0.04,-0.14,1.08
226,-5.33,9.88,35.63,-0.05,-0.13,1.07
227,-5.60,8.00,36.44,-0.04,-0.13,1.07
228,-5.21,6.37,36.21,-0.03,-0.12,1.07
229,-5.27,5.25,36.17,-0.03,-0.13,1.06
230,-5.85,6.21,36.55,-0.03,-0.12,1.07
231,-6.21,5.42,36.90,-0.04,-0.12,1.07
232,-6.95,3.88,37.39,-0.05,-0.13,1.08
233,-7.31,4.32,38.05,-0.05,-0.13,1.07
234,-7.05,2.61,38.34,-0.05,-0.14,1.09
235,-7.45,2.11,38.61,-0.04,-0.14,1.09
236,-6.76,0.85,38.89,-0.05,-0.14,1.10
237,-6.05,-0.44,39.24,-0.06,-0.14,1.09
238,-6.38,0.53,40.55,-0.05,-0.14,1.09
239,-6.52,0.11,41.54,-0.06,-0.14,1.08
240,-7.27,-1.40,42.64,-0.06,-0.13,1.09
241,-7.01,-1.83,43.47,-0.04,-0.14,1.09
242,-6.47,-2.40,43.88,-0.03,-0.14,1.09
243,-5.45,-3.30,44.08,-0.03,-0.14,1.10
244,-4.23,-3.15,44.60,-0.04,-0.13,1.10
245,-3.74,-2.46,45.24,-0.04,-0.14,1.10
246,-3.42,-2.87,45.48,-0.04,-0.13,1.09
247,-3.53,-3.71,45.85,-0.03,-0.13,1.08
248,-3.60,-5.15,46.52,-0.03,-0.12,1.08
249,-3.50,-7.36,46.76,-0.03,-0.12,1.08
250,-3.42,-8.52,46.96,-0.02,-0.12,1.09
251,-3.73,-8.24,47.16,-0.01,-0.12,1.07
252,-4.12,-8.61,47.24,-0.01,-0.13,1.06
253,-4.44,-12.06,47.15,-0.00,-0.13,1.09
254,-4.31,-14.58,46.95,-0.02,-0.13,1.10
255,-2.84,-18.61,46.81,0.01,-0.13,1.12
256,-2.46,-19.69,46.05,0.01,-0.13,1.13
257,-0.53,-18.09,45.89,0.03,-0.13,1.12
258,0.53,-21.80,45.73,0.02,-0.15,1.15
259,0.56,-21.79,46.24,0.02,-0.13,1.13
260,-0.99,-16.73,47.36,0.03,-0.12,1.11
261,-2.11,-15.45,48.96,0.00,-0.12,1.11
262,-3.07,-15.08,50.69,-0.00,-0.13,1.10
263,-4.32,-14.11,52.17,0.01,-0.12,1.10
264,-4.46,-13.19,53.15,0.03,-0.13,1.09
265,-4.26,-12.72,53.45,0.03,-0.12,1.09
266,-3.48,-13.42,53.40,0.04,-0.11,1.09
267,-3.40,-13.16,53.25,0.06,-0.12,1.09
268,-3.16,-14.06,52.53,0.08,-0.12,1.08
269,-3.24,-16.73,51.34,0.08,-0.12,1.08
270,-3.65,-18.24,50.35,0.09,-0.11,1.09
271,-4.93,-19.68,49.25,0.10,-0.11,1.09
272,-2.87,-21.04,48.64,0.11,-0.12,1.09
273,-3.95,-19.51,47.85,0.12,-0.11,1.11
274,-4.89,-19.65,46.56,0.13,-0.10,1.13
275,-3.51,-18.58,46.41,0.12,-0.11,1.12
276,-3.33,-16.79,46.66,0.11,-0.10,1.10
277,-3.13,-16.95,47.40,0.11,-0.10,1.11
278,-3.53,-11.65,48.00,0.12,-0.09,1.10
279,-2.46,-10.93,48.49,0.11,-0.09,1.09
280,-2.08,-6.64,49.05,0.12,-0.10,1.07
281,-2.50,-5.19,49.85,0.10,-0.10,1.06
282,-3.60,-2.29,50.56,0.08,-0.11,1.04
283,-4.90,-2.00,50.89,0.08,-0.11,1.03
284,-6.58,-0.76,50.73,0.07,-0.11,1.02
285,-7.77,-1.34,50.38,0.06,-0.12,1.00
286,-8.53,-0.79,50.31,0.05,-0.12,1.00
287,-11.13,-2.92,50.21,0.04,-0.13,1.01
288,-12.26,-5.94,50.56,0.04,-0.13,0.97
289,-13.31,-6.92,50.38,0.04,-0.14,1.01
290,-14.63,-7.74,50.37,0.04,-0.15,1.02
291,-16.43,-4.03,50.12,0.05,-0.16,1.02
292,-15.59,-5.83,51.21,0.03,-0.16,1.03
293,-14.64,-10.05,50.92,0.03,-0.17,1.06
294,-15.48,-9.19,50.85,0.06,-0.17,1.04
295,-15.88,-8.18,50.31,0.07,-0.18,1.06
296,-16.20,-10.58,49.31,0.06,-0.18,1.06
297,-15.65,-12.47,48.96,0.05,-0.19,1.07
298,-15.66,-13.19,48.95,0.07,-0.19,1.08
299,-14.85,-14.00,48.61,0.07,-0.20,1.09
300,-14.60,-13.24,48.12,0.07,-0.20,1.09
301,-14.03,-12.60,48.37,0.06,-0.22,1.08
302,-13.34,-12.44,49.34,0.04,-0.21,1.09
303,-13.42,-11.97,50.29,0.03,-0.22,1.09
304,-13.25,-12.56,50.95,0.04,-0.23,1.11
305,-12.35,-11.80,51.82,0.05,-0.23,1.11
306,-11.57,-10.58,52.41,0.05,-0.24,1.13
307,-10.02,-10.87,53.05,0.04,-0.24,1.13
308,-9.51,-10.69,53.56,0.06,-0.24,1.12
309,-10.26,-12.31,53.94,0.05,-0.25,1.12
310,-10.69,-12.43,53.73,0.07,-0.25,1.11
311,-9.76,-12.58,53.54,0.08,-0.24,1.12
312,-8.47,-14.50,52.79,0.09,-0.25,1.13
313,-6.27,-16.92,51.63,0.09,-0.26,1.12
314,-4.78,-19.22,50.81,0.08,-0.26,1.14
315,-3.59,-20.03,50.34,0.09,-0.26,1.13
316,-1.45,-21.40,49.51,0.09,-0.26,1.11
317,-0.56,-25.53,48.84,0.09,-0.27,1.11
318,-1.92,-23.42,48.37,0.12,-0.27,1.12
319,-1.18,-24.05,47.86,0.10,-0.27,1.13
320,-1.79,-25.74,47.48,0.11,-0.27,1.14
321,2.00,-25.56,47.28,0.10,-0.30,1.12
322,-0.38,-27.73,47.08,0.11,-0.26,1.15
323,2.64,-27.22,47.07,0.10,-0.27,1.11
324,1.37,-27.73,46.99,0.12,-0.27,1.12
325,2.27,-29.56,47.19,0.11,-0.27,1.14
326,2.47,-30.03,47.48,0.12,-0.28,1.13
327,3.11,-28.55,47.39,0.13,-0.27,1.14
328,3.73,-27.65,46.99,0.14,-0.27,1.14
329,4.92,-27.71,46.61,0.14,-0.27,1.13
330,4.75,-28.05,45.71,0.15,-0.28,1.13
331,6.24,-29.04,44.43,0.15,-0.28,1.13
332,6.46,-30.14,43.79,0.15,-0.28,1.13
333,8.00,-31.94,42.93,0.16,-0.27,1.13
334,8.84,-32.47,41.95,0.17,-0.28,1.12
335,9.48,-33.57,40.90,0.17,-0.28,1.12
336,10.08,-33.91,39.54,0.17,-0.28,1.11
337,10.26,-33.59,38.93,0.17,-0.27,1.11
338,10.26,-33.16,38.87,0.16,-0.26,1.10
339,9.68,-33.08,38.85,0.16,-0.28,1.10
340,9.77,-32.06,38.66,0.16,-0.27,1.08
341,9.51,-31.47,38.35,0.17,-0.27,1.09
342,9.42,-31.40,37.50,0.18,-0.26,1.08
343,9.21,-32.23,36.79,0.18,-0.26,1.08
344,9.10,-31.27,36.53,0.17,-0.27,1.09
345,9.21,-32.78,36.49,0.18,-0.26,1.09
346,9.28,-33.15,36.03,0.19,-0.26,1.08
347,9.63,-32.35,35.45,0.20,-0.26,1.09
348,9.51,-32.44,34.92,0.20,-0.27,1.10
349,9.68,-31.59,34.98,0.20,-0.26,1.10
350,9.71,-30.34,35.53,0.18,-0.27,1.09
351,9.63,-29.25,35.66,0.20,-0.27,1.10
352,9.77,-27.13,35.44,0.23,-0.25,1.09
353,10.14,-25.73,34.12,0.24,-0.26,1.09
354,10.67,-28.08,32.09,0.24,-0.26,1.08
355,10.35,-26.69,31.01,0.25,-0.25,1.06
356,9.65,-25.71,30.63,0.24,-0.26,1.08
357,10.11,-24.82,29.13,0.24,-0.26,1.08
358,11.04,-26.23,28.03,0.24,-0.26,1.08
359,10.78,-27.30,26.52,0.24,-0.26,1.06
360,10.43,-27.59,26.12,0.23,-0.26,1.06
361,9.80,-28.35,25.60,0.21,-0.26,1.08
362,9.80,-28.38,25.16,0.23,-0.25,1.07
363,9.92,-28.37,24.82,0.24,-0.25,1.07
364,9.79,-28.60,24.21,0.24,-0.26,1.07
365,9.77,-26.50,24.15,0.25,-0.24,1.07
366,9.10,-24.81,23.98,0.25,-0.24,1.08
367,7.98,-23.92,23.76,0.26,-0.25,1.08
368,8.84,-20.50,23.48,0.27,-0.24,1.10
369,9.86,-17.25,23.77,0.26,-0.25,1.09
370,9.21,-18.56,24.58,0.26,-0.25,1.09
371,9.89,-16.58,24.55,0.28,-0.24,1.08
372,9.80,-16.05,23.69,0.30,-0.24,1.07
373,9.45,-15.57,22.18,0.30,-0.24,1.08
374,10.35,-14.26,20.82,0.33,-0.23,1.05
375,9.68,-13.63,18.81,0.32,-0.23,1.06
376,10.35,-15.10,16.85,0.31,-0.22,1.04
377,10.27,-17.13,14.70,0.31,-0.23,1.01
378,8.73,-20.63,12.82,0.32,-0.23,1.08
379,10.82,-19.01,10.64,0.34,-0.22,1.03
380,10.03,-20.23,8.78,0.32,-0.22,1.04
381,6.78,-14.82,6.56,0.35,-0.21,1.06
382,10.09,-17.19,5.62,0.30,-0.22,1.09
383,11.89,-20.15,5.65,0.27,-0.22,1.09
384,13.56,-19.10,5.71,0.29,-0.22,1.07
385,14.56,-19.18,5.98,0.28,-0.21,1.07
386,15.07,-17.97,6.38,0.30,-0.22,1.06
387,15.24,-14.64,6.37,0.32,-0.22,1.05
388,12.29,-9.98,6.56,0.33,-0.20,1.02
389,15.22,-8.92,7.05,0.30,-0.20,1.03
390,14.03,-7.68,8.06,0.29,-0.20,1.02
391,12.14,-3.47,9.33,0.30,-0.19,1.04
392,12.90,1.65,9.97,0.30,-0.19,1.02
393,14.21,0.81,10.27,0.29,-0.19,1.03
394,14.03,3.47,10.29,0.28,-0.20,1.02
395,14.26,5.73,11.40,0.27,-0.18,1.02
396,16.09,4.23,11.97,0.25,-0.19,1.04
397,17.05,1.27,11.66,0.24,-0.20,1.02
398,17.74,-1.21,10.79,0.26,-0.19,1.01
399,17.47,-3.24,9.66,0.25,-0.17,1.00
400,17.21,-5.56,8.69,0.26,-0.17,0.99
401,17.53,-9.10,7.56,0.25,-0.17,1.01
402,15.51,-7.45,6.61,0.29,-0.17,1.00
403,15.01,-4.96,6.03,0.28,-0.18,0.98
404,14.69,-5.85,4.89,0.27,-0.16,0.99
405,15.71,-6.32,4.21,0.28,-0.16,1.00
406,14.70,-3.66,4.29,0.29,-0.18,0.98
407,12.40,-3.01,3.77,0.28,-0.16,1.00
408,14.34,-0.87,3.73,0.29,-0.17,1.00
409,11.89,-0.20,3.65,0.28,-0.15,1.02
410,11.97,-0.40,3.27,0.27,-0.18,1.01
411,14.58,-0.56,3.22,0.27,-0.19,0.99
412,13.34,0.99,3.63,0.27,-0.19,0.98
413,12.64,-1.79,3.07,0.25,-0.17,1.00
414,13.66,-2.37,2.67,0.27,-0.18,1.00
415,12.64,-3.68,1.89,0.27,-0.17,1.00
416,13.36,-5.11,0.60,0.27,-0.17,0.99
417,13.40,-5.13,-0.72,0.29,-0.18,1.00
418,13.74,-4.81,-1.80,0.31,-0.18,1.01
419,13.86,-6.15,-2.93,0.30,-0.17,1.02
420,14.66,-7.91,-3.53,0.29,-0.17,1.03
421,14.73,-8.72,-4.15,0.29,-0.17,1.02
422,15.19,-8.92,-4.81,0.31,-0.18,1.03
423,15.79,-8.49,-6.05,0.32,-0.17,1.02
424,15.95,-7.40,-7.27,0.33,-0.17,1.03
425,16.09,-7.02,-8.58,0.33,-0.16,1.03
426,16.60,-6.81,-10.09,0.34,-0.17,1.03
427,17.34,-6.89,-11.15,0.34,-0.15,1.02
428,18.11,-7.28,-12.66,0.34,-0.16,1.03
429,17.95,-7.47,-13.45,0.33,-0.16,1.03
430,18.21,-7.76,-14.03,0.32,-0.16,1.02
431,18.87,-9.79,-14.75,0.31,-0.16,1.05
432,20.17,-8.37,-14.70,0.31,-0.17,1.05
433,20.82,-7.88,-14.58,0.31,-0.16,1.06
434,20.64,-6.41,-14.60,0.31,-0.15,1.05
435,20.82,-3.30,-14.82,0.33,-0.15,1.04
436,20.38,-2.14,-15.22,0.32,-0.15,1.03
437,20.44,-1.98,-15.63,0.33,-0.14,1.02
438,20.50,-3.51,-16.37,0.33,-0.14,1.02
439,20.90,-5.15,-17.40,0.33,-0.13,1.01
440,20.55,-4.61,-18.49,0.34,-0.12,1.01
441,20.43,-4.60,-19.48,0.35,-0.12,1.02
442,19.80,-4.44,-20.82,0.35,-0.11,1.02
443,18.78,-3.92,-21.94,0.35,-0.11,1.01
444,17.65,-2.76,-23.25,0.37,-0.11,0.99
445,16.35,-1.19,-24.98,0.38,-0.10,1.00
446,15.95,-0.47,-26.32,0.38,-0.11,1.03
447,16.40,-0.20,-27.34,0.37,-0.12,1.03
448,17.66,-0.34,-28.55,0.37,-0.12,1.05
449,19.33,-0.60,-29.56,0.35,-0.13,1.05
450,19.62,-1.36,-30.66,0.35,-0.12,1.05
451,19.56,-2.53,-31.68,0.36,-0.11,1.04
452,19.50,-4.23,-32.99,0.37,-0.11,1.02
453,19.25,-4.64,-34.00,0.38,-0.10,1.01
454,20.02,-3.45,-35.01,0.37,-0.10,1.00
455,17.39,-5.86,-36.32,0.38,-0.08,1.00
456,17.83,-1.08,-36.47,0.39,-0.08,1.01
457,18.37,1.63,-37.28,0.39,-0.08,1.01
458,17.40,5.07,-37.71,0.39,-0.08,1.02
459,17.24,7.02,-37.74,0.37,-0.08,1.02
460,17.19,8.84,-38.49,0.37,-0.09,1.01
461,16.66,9.68,-38.63,0.37,-0.09,1.00
462,15.07,11.79,-38.00,0.36,-0.08,1.01
463,14.49,10.78,-37.94,0.37,-0.08,1.00
464,14.75,12.14,-38.61,0.37,-0.07,1.04
465,14.41,14.11,-39.68,0.39,-0.06,1.05
466,16.50,15.51,-41.24,0.40,-0.06,1.04
467,16.03,16.44,-42.76,0.40,-0.06,1.04
468,17.66,13.57,-44.44,0.39,-0.05,1.04
469,18.72,11.66,-46.32,0.40,-0.06,1.03
470,20.58,8.98,-48.38,0.41,-0.05,1.02
471,18.93,8.35,-50.58,0.41,-0.03,1.02
472,19.05,6.99,-52.63,0.41,-0.04,1.00
473,20.96,7.34,-54.75,0.41,-0.04,1.00
474,20.78,6.61,-56.24,0.40,-0.03,1.01
475,19.79,8.41,-57.45,0.40,-0.04,0.98
476,19.62,8.93,-58.29,0.38,-0.04,0.99
477,19.86,10.96,-58.37,0.37,-0.04,0.99
478,16.76,12.43,-57.73,0.33,-0.02,1.04
479,17.05,17.59,-57.30,0.35,-0.03,1.00
480,17.95,20.55,-56.61,0.32,-0.05,1.00
481,18.40,21.48,-55.98,0.29,-0.05,1.01
482,17.27,21.91,-54.44,0.28,-0.05,1.01
483,15.80,24.06,-53.57,0.27,-0.05,1.02
484,16.66,23.25,-53.40,0.27,-0.04,1.03
485,18.05,22.29,-54.15,0.28,-0.04,1.02
486,18.75,20.31,-54.56,0.27,-0.03,1.01
487,18.29,19.16,-55.15,0.25,-0.03,1.01
488,18.98,17.05,-55.95,0.26,-0.01,1.00
489,20.50,14.14,-57.66,0.27,-0.01,1.01
490,18.23,12.29,-59.42,0.27,0.01,0.99
491,18.95,10.32,-60.92,0.26,0.01,0.97
492,22.14,8.46,-61.57,0.23,0.00,0.97
493,18.64,5.92,-61.82,0.22,-0.00,0.97
494,16.58,3.47,-61.91,0.21,0.00,0.99
495,16.92,6.76,-60.76,0.22,0.01,1.00
496,15.02,9.16,-59.45,0.21,0.01,1.00
497,15.37,13.01,-58.20,0.20,0.02,0.99
498,15.91,15.01,-56.98,0.20,0.02,0.98
499,14.43,15.85,-56.26,0.19,0.02,0.98
500,13.79,15.66,-55.94,0.20,0.03,0.98
501,13.48,14.72,-56.02,0.18,0.03,0.97
502,12.61,13.15,-56.09,0.18,0.04,0.97
503,12.35,12.47,-55.95,0.16,0.05,0.97
504,12.66,8.99,-56.47,0.16,0.05,0.97
505,13.16,6.56,-57.02,0.18,0.05,0.98
506,13.65,5.19,-58.44,0.18,0.05,0.98
507,13.04,2.20,-59.63,0.19,0.05,1.00
508,13.65,3.77,-60.23,0.18,0.06,0.97
509,13.15,-0.95,-61.33,0.16,0.06,0.97
510,12.81,-3.80,-62.03,0.17,0.07,0.95
511,12.29,-5.50,-62.72,0.17,0.08,0.94
512,11.85,-9.82,-63.36,0.16,0.07,0.95
513,11.30,-10.38,-63.51,0.15,0.07,0.94
514,10.81,-9.91,-62.43,0.14,0.08,0.92
515,10.40,-8.24,-60.99,0.14,0.09,0.93
516,9.39,-4.60,-59.79,0.18,0.08,0.91
517,9.02,-3.54,-58.85,0.16,0.08,0.91
518,7.01,-4.29,-57.73,0.14,0.09,0.93
519,6.20,0.23,-55.97,0.15,0.10,0.93
520,4.92,1.22,-54.66,0.14,0.09,0.93
521,4.60,4.24,-54.12,0.18,0.10,0.92
522,3.80,5.28,-54.14,0.16,0.10,0.93
523,3.48,4.18,-53.66,0.15,0.10,0.92
524,2.67,4.21,-52.87,0.14,0.11,0.91
525,1.47,3.34,-52.93,0.15,0.12,0.90
526,0.46,0.98,-54.00,0.17,0.12,0.89
527,0.03,-0.40,-55.40,0.18,0.12,0.91
528,-0.31,-2.79,-56.84,0.17,0.12,0.92
529,-0.50,-3.60,-57.56,0.15,0.11,0.92
530,-1.69,-5.50,-57.73,0.12,0.11,0.94
531,-2.49,-6.26,-57.60,0.11,0.10,0.94
532,-2.72,-7.36,-57.19,0.11,0.11,0.95
533,-3.79,-7.22,-56.99,0.12,0.10,0.95
534,-4.02,-7.48,-56.49,0.13,0.11,0.97
535,-4.46,-7.94,-57.08,0.13,0.11,0.97
536,-4.58,-8.38,-57.85,0.13,0.10,0.96
537,-4.61,-9.57,-58.49,0.14,0.11,0.97
538,-4.78,-11.15,-59.34,0.14,0.10,0.97
539,-4.78,-14.72,-60.27,0.14,0.11,0.96
540,-4.61,-18.31,-61.57,0.15,0.12,0.98
541,-4.34,-19.77,-62.56,0.16,0.12,0.96
542,-4.55,-22.15,-62.72,0.15,0.12,0.98
543,-4.89,-24.24,-62.82,0.14,0.13,0.98
544,-5.30,-23.25,-61.76,0.13,0.12,0.96
545,-6.27,-21.04,-59.85,0.14,0.13,0.96
546,-6.79,-18.87,-57.31,0.12,0.14,0.99
547,-8.17,-14.05,-54.03,0.12,0.15,0.97
548,-8.84,-7.34,-50.18,0.13,0.14,0.96
549,-10.50,-0.81,-46.41,0.15,0.14,0.97
550,-12.99,7.21,-41.97,0.15,0.13,0.98
551,-13.11,15.50,-40.38,0.20,0.15,1.00
552,-12.43,16.00,-40.35,0.19,0.15,0.99
553,-13.25,19.40,-39.94,0.20,0.13,0.99
554,-14.34,21.01,-39.44,0.19,0.13,1.01
555,-13.91,18.29,-39.92,0.15,0.12,1.04
556,-12.58,16.87,-40.89,0.15,0.12,1.03
557,-11.85,15.04,-42.17,0.12,0.12,1.01
558,-12.00,11.57,-43.16,0.12,0.11,1.02
559,-10.27,10.82,-44.24,0.12,0.10,1.01
560,-10.40,5.59,-45.34,0.09,0.11,1.04
561,-9.01,7.71,-44.38,0.08,0.10,1.04
562,-9.83,4.67,-44.08,0.09,0.09,1.05
563,-9.40,4.99,-43.76,0.08,0.10,1.05
564,-9.33,4.92,-43.01,0.05,0.11,1.07
565,-9.10,4.99,-42.11,0.06,0.10,1.04
566,-8.87,4.78,-41.37,0.07,0.11,1.03
567,-9.63,1.80,-41.68,0.08,0.12,1.03
568,-9.40,1.11,-41.65,0.07,0.12,1.03
569,-8.70,2.43,-41.47,0.07,0.11,1.01
570,-10.02,1.42,-41.88,0.06,0.12,1.03
571,-9.79,-0.27,-41.89,0.06,0.11,1.03
572,-9.69,-2.93,-41.57,0.04,0.11,1.01
573,-11.25,-5.33,-40.53,0.01,0.12,1.03
574,-11.50,-4.37,-38.56,0.02,0.11,1.04
575,-11.30,-3.05,-36.46,0.05,0.13,1.04
576,-11.88,-3.07,-35.73,0.06,0.13,1.06
577,-11.63,-2.02,-34.37,0.07,0.13,1.06
578,-11.30,0.02,-33.22,0.07,0.13,1.05
579,-10.75,0.35,-32.44,0.06,0.12,1.04
580,-10.98,1.95,-31.30,0.05,0.12,1.02
581,-11.44,-1.04,-31.07,0.04,0.12,1.02
582,-11.54,-4.89,-31.24,0.04,0.11,1.03
583,-11.07,-6.26,-30.89,0.04,0.10,1.04
584,-11.56,-5.88,-29.89,0.03,0.10,1.04
585,-12.34,-6.14,-28.29,0.02,0.10,1.04
586,-13.11,-7.27,-26.96,0.03,0.11,1.06
587,-12.96,-4.98,-25.60,0.06,0.10,1.07
588,-12.96,-1.13,-23.85,0.07,0.10,1.07
589,-13.60,1.27,-22.38,0.07,0.11,1.09
590,-12.41,-2.46,-21.60,0.06,0.10,1.09
591,-11.60,-1.48,-20.44,0.09,0.11,1.06
592,-11.89,-1.92,-20.66,0.10,0.11,1.08
593,-9.85,-2.20,-20.96,0.13,0.10,1.09
594,-9.27,2.11,-20.14,0.13,0.10,1.06
595,-8.18,-1.39,-20.92,0.10,0.10,1.07
596,-6.92,-5.51,-21.76,0.11,0.10,1.07
597,-6.73,-4.67,-22.27,0.11,0.09,1.07
598,-6.15,-5.51,-22.64,0.11,0.10,1.06
599,-5.51,-5.51,-23.08,0.09,0.09,1.08
600,-5.08,-4.93,-22.92,0.10,0.09,1.08
601,-5.18,-4.26,-22.63,0.11,0.09,1.07
602,-5.30,-4.29,-22.03,0.10,0.08,1.08
603,-3.80,-3.88,-21.28,0.10,0.09,1.08
604,-4.17,-3.44,-20.46,0.10,0.08,1.09
605,-3.45,-2.08,-19.60,0.10,0.08,1.09
606,-2.78,-0.15,-18.72,0.12,0.08,1.09
607,-2.05,1.76,-18.24,0.12,0.08,1.08
608,-1.11,4.20,-17.31,0.10,0.09,1.07
609,-0.92,5.65,-16.55,0.10,0.08,1.07
610,0.84,8.08,-15.53,0.10,0.09,1.06
611,1.42,10.50,-14.79,0.10,0.09,1.05
612,1.47,12.63,-13.51,0.08,0.09,1.05
613,1.89,13.97,-12.24,0.07,0.10,1.03
614,1.45,15.04,-11.07,0.06,0.10,1.03
615,1.22,15.30,-9.82,0.06,0.10,1.03
616,1.30,16.26,-8.73,0.04,0.10,1.02
617,-0.47,15.53,-7.36,0.04,0.11,1.02
618,-0.67,15.89,-6.90,0.06,0.10,1.03
619,-0.78,15.21,-6.76,0.08,0.11,1.04
620,-0.84,15.62,-6.96,0.09,0.11,1.04
621,-0.73,14.46,-7.13,0.07,0.11,1.03
622,-0.95,12.87,-6.98,0.07,0.11,1.00
623,-1.28,11.47,-7.31,0.07,0.11,1.01
624,-1.60,10.00,-7.76,0.07,0.11,1.01
625,-1.45,8.90,-8.11,0.07,0.12,1.00
626,-2.09,9.21,-8.26,0.05,0.11,1.01
627,-2.29,9.07,-7.98,0.05,0.11,1.00
628,-2.67,8.73,-7.88,0.04,0.10,1.01
629,-3.39,8.27,-7.42,0.03,0.11,1.02
630,-3.97,6.89,-6.99,0.02,0.11,1.02
631,-4.50,4.76,-6.37,0.02,0.11,1.01
632,-5.11,3.83,-5.56,0.03,0.10,1.02
633,-5.54,3.92,-4.78,0.03,0.10,1.03
634,-5.59,3.95,-4.29,0.05,0.10,1.04
635,-5.28,4.29,-3.89,0.06,0.10,1.05
636,-5.18,4.50,-3.39,0.05,0.10,1.05
637,-4.82,4.52,-2.64,0.04,0.11,1.05
638,-4.61,3.77,-2.34,0.05,0.10,1.04
