,gyro_x,gyro_y,gyro_z,acce_x,acce_y,acce_z
0,-2.79,-6.89,-1.73,0.22,-0.29,1.02
1,-2.90,-6.14,-1.13,0.22,-0.28,1.01
2,-2.37,-6.27,-0.47,0.21,-0.28,1.01
3,-1.97,-7.45,0.05,0.21,-0.28,1.01
4,-1.51,-8.32,0.44,0.22,-0.28,1.01
5,-0.90,-8.66,0.84,0.22,-0.29,1.01
6,-0.90,-8.37,1.37,0.23,-0.29,1.02
7,-0.32,-8.49,1.66,0.24,-0.29,1.01
8,0.60,-7.76,1.66,0.23,-0.28,1.02
9,0.41,-6.18,1.98,0.23,-0.28,1.01
10,0.11,-4.89,2.87,0.23,-0.28,1.01
11,-0.26,-4.44,3.24,0.23,-0.27,1.00
12,-0.14,-4.43,3.80,0.22,-0.27,1.00
13,-0.18,-3.97,4.44,0.24,-0.27,1.00
14,-0.49,-3.24,4.87,0.24,-0.27,0.99
15,0.17,-4.20,5.01,0.25,-0.28,0.99
16,-0.55,-2.79,5.34,0.26,-0.27,0.99
17,0.06,-4.24,5.69,0.25,-0.28,0.97
18,-0.38,-4.21,5.50,0.26,-0.27,0.99
19,-0.58,-5.21,5.54,0.26,-0.27,0.98
20,-0.44,-5.36,5.16,0.26,-0.27,0.97
21,-1.54,-5.44,5.16,0.26,-0.27,0.99
22,0.14,-7.24,5.07,0.26,-0.28,0.98
23,0.06,-7.42,4.87,0.27,-0.28,0.99
24,0.44,-7.57,5.18,0.27,-0.28,0.99
25,0.50,-6.06,5.50,0.27,-0.28,0.99
26,0.05,-3.83,6.00,0.26,-0.28,0.99
27,0.24,-2.38,6.89,0.27,-0.28,0.99
28,0.17,0.26,6.82,0.28,-0.28,1.00
29,0.02,1.07,7.69,0.28,-0.28,1.01
30,-0.20,1.39,7.79,0.28,-0.28,1.01
31,1.98,1.34,7.57,0.28,-0.29,0.98
32,3.97,-0.92,7.79,0.28,-0.29,0.98
33,3.62,-3.30,7.53,0.28,-0.28,0.97
34,2.12,-4.29,7.48,0.30,-0.28,0.99
35,1.85,-4.34,7.97,0.30,-0.29,0.99
36,1.94,-1.98,7.62,0.31,-0.29,0.98
37,1.97,-0.47,7.66,0.31,-0.28,0.97
38,1.73,0.18,7.76,0.30,-0.29,0.98
39,1.50,0.75,7.80,0.31,-0.28,0.97
40,1.21,1.21,8.00,0.31,-0.28,0.98
41,1.21,1.28,8.08,0.30,-0.28,0.97
42,1.60,1.33,8.23,0.32,-0.28,0.98
43,1.89,2.55,8.47,0.32,-0.29,0.99
44,1.85,3.89,8.63,0.32,-0.28,0.98
45,1.74,4.61,8.49,0.32,-0.28,0.98
46,1.40,5.16,8.75,0.32,-0.28,0.98
47,1.63,4.85,8.41,0.33,-0.27,0.98
48,1.83,4.43,8.29,0.33,-0.27,0.98
49,2.31,4.63,7.89,0.34,-0.27,0.98
50,2.46,4.64,7.62,0.34,-0.26,0.98
51,2.66,3.47,7.24,0.34,-0.26,0.98
52,2.85,3.33,6.90,0.34,-0.26,0.98
53,2.56,4.61,6.47,0.35,-0.26,0.99
54,2.55,5.30,5.88,0.35,-0.27,0.98
55,3.02,5.18,5.11,0.35,-0.26,0.98
56,3.18,5.22,4.47,0.34,-0.26,0.98
57,2.92,5.98,3.97,0.33,-0.26,0.98
58,2.67,6.17,3.80,0.33,-0.26,0.97
59,2.89,5.36,3.31,0.30,-0.26,0.97
60,3.10,4.08,2.92,0.30,-0.26,0.97
61,2.40,3.11,2.89,0.29,-0.26,0.97
62,2.26,2.03,2.85,0.28,-0.27,0.96
63,2.02,0.82,2.90,0.27,-0.26,0.97
64,3.07,-0.73,2.96,0.27,-0.26,0.98
65,2.98,-1.11,3.25,0.26,-0.27,0.96
66,3.04,0.23,3.42,0.26,-0.26,0.97
67,2.69,0.40,4.47,0.25,-0.26,0.96
68,2.56,-0.02,4.92,0.26,-0.26,0.97
69,2.55,0.12,5.22,0.27,-0.26,0.96
70,1.44,1.15,5.66,0.28,-0.26,0.96
71,1.15,1.21,5.83,0.28,-0.27,0.97
72,1.63,1.25,5.76,0.28,-0.27,0.97
73,1.48,2.26,5.62,0.29,-0.28,0.98
74,1.62,3.04,5.65,0.29,-0.28,0.98
75,1.36,3.50,4.92,0.28,-0.28,0.97
76,1.39,2.11,4.24,0.29,-0.28,0.97
77,1.47,0.05,3.85,0.27,-0.28,0.97
78,1.11,-1.68,3.62,0.26,-0.28,0.97
79,0.46,-3.68,3.79,0.25,-0.28,0.97
80,0.20,-5.11,4.02,0.24,-0.28,0.98
81,1.01,-5.34,4.05,0.25,-0.28,0.97
82,1.65,-4.84,4.72,0.25,-0.28,0.96
83,1.60,-3.71,5.56,0.25,-0.27,0.96
84,1.34,-3.37,6.17,0.26,-0.27,0.97
85,1.33,-3.05,6.46,0.26,-0.27,0.98
86,0.84,-2.37,6.67,0.28,-0.27,0.96
87,1.21,-2.78,6.76,0.28,-0.27,0.96
88,2.31,-3.50,6.53,0.28,-0.28,0.97
89,2.95,-3.51,6.76,0.29,-0.28,0.96
90,2.55,-2.63,6.60,0.30,-0.28,0.95
91,2.26,-2.89,6.47,0.29,-0.27,0.97
92,1.94,-2.95,6.41,0.31,-0.27,0.96
93,2.14,-3.13,6.15,0.30,-0.27,0.97
94,2.41,-3.50,5.65,0.32,-0.27,0.97
95,2.29,-3.08,4.92,0.32,-0.27,0.96
96,1.47,-2.92,4.31,0.32,-0.27,0.95
97,1.36,-3.30,3.83,0.31,-0.28,0.95
98,1.28,-3.68,3.24,0.30,-0.27,0.95
99,1.08,-3.10,3.16,0.30,-0.27,0.96
100,1.59,-2.31,3.56,0.30,-0.28,0.96
101,1.22,-1.97,3.79,0.29,-0.29,0.96
102,0.69,-0.18,4.12,0.29,-0.28,0.96
103,0.26,2.00,4.38,0.29,-0.28,0.96
104,0.55,2.35,4.61,0.29,-0.29,0.96
105,-0.12,1.59,4.76,0.29,-0.28,0.96
106,-0.66,1.04,4.63,0.28,-0.29,0.97
107,-0.99,-0.72,4.78,0.28,-0.29,0.97
108,-1.24,-1.36,4.99,0.29,-0.28,0.98
109,-0.89,-2.02,4.73,0.29,-0.28,1.00
110,0.17,-2.44,4.63,0.30,-0.28,1.00
111,0.43,-2.38,4.56,0.30,-0.28,1.00
112,0.47,-2.09,4.52,0.30,-0.28,1.01
113,-0.06,-0.44,4.58,0.31,-0.29,1.01
114,0.05,1.04,4.43,0.33,-0.28,1.02
115,1.05,2.02,4.56,0.32,-0.29,1.03
116,1.02,3.65,4.40,0.32,-0.28,1.02
117,1.62,4.82,4.09,0.32,-0.28,1.02
118,1.48,5.07,3.82,0.32,-0.28,1.01
119,1.73,4.43,3.47,0.30,-0.27,1.00
120,1.83,3.82,3.31,0.30,-0.27,1.00
121,1.39,2.56,3.04,0.29,-0.28,0.99
122,1.11,1.73,2.96,0.30,-0.27,0.98
123,0.72,0.79,2.70,0.30,-0.27,0.98
124,0.79,0.34,2.31,0.30,-0.28,0.96
125,0.40,0.69,1.88,0.31,-0.27,0.97
126,-0.05,0.46,1.33,0.30,-0.28,0.98
127,-0.14,0.72,1.15,0.30,-0.28,0.99
128,-0.34,1.86,1.11,0.29,-0.28,1.00
129,0.03,3.48,1.51,0.29,-0.28,1.00
130,-0.72,4.35,1.22,0.28,-0.28,0.99
131,-0.63,5.76,1.51,0.27,-0.28,0.99
132,0.70,6.14,2.09,0.27,-0.28,0.98
133,1.97,4.27,2.35,0.25,-0.29,0.99
134,1.86,3.08,2.61,0.27,-0.28,0.98
135,1.50,4.49,2.73,0.28,-0.28,0.98
136,1.15,5.95,2.50,0.28,-0.28,0.98
137,1.11,6.67,2.49,0.27,-0.28,0.98
138,0.78,6.60,2.76,0.27,-0.29,0.97
139,0.35,5.76,2.95,0.26,-0.28,0.97
140,0.15,4.27,3.28,0.26,-0.28,0.97
141,0.23,3.01,3.47,0.26,-0.29,0.97
142,0.15,2.37,3.44,0.27,-0.28,0.97
143,0.11,2.05,3.66,0.26,-0.28,0.97
144,0.44,2.26,3.62,0.27,-0.28,0.97
145,-0.03,2.82,3.86,0.28,-0.28,0.97
146,-0.58,3.47,3.71,0.28,-0.28,0.96
147,-0.38,3.50,3.34,0.28,-0.28,0.96
148,-0.46,3.86,3.22,0.29,-0.28,0.95
149,-0.87,4.14,3.08,0.29,-0.28,0.94
150,-0.87,4.18,2.46,0.29,-0.28,0.95
151,-0.90,2.98,2.15,0.28,-0.28,0.95
152,-1.15,2.08,2.23,0.29,-0.27,0.95
153,-1.77,2.02,1.80,0.29,-0.28,0.96
154,-2.32,0.92,1.63,0.28,-0.28,0.97
155,-2.37,0.08,1.37,0.29,-0.27,0.98
156,-1.85,-0.15,1.16,0.28,-0.28,0.98
157,-1.50,0.52,1.11,0.30,-0.28,0.99
158,-1.21,0.56,0.81,0.30,-0.28,1.01
159,-0.43,0.89,0.66,0.28,-0.28,1.00
160,-0.15,0.96,1.15,0.27,-0.28,1.01
161,0.40,1.30,1.47,0.27,-0.28,1.01
162,1.30,1.34,1.73,0.27,-0.28,1.01
163,2.12,2.21,1.65,0.28,-0.28,1.01
164,2.69,3.36,2.02,0.28,-0.27,1.00
165,3.21,4.35,1.71,0.28,-0.28,1.00
166,3.28,4.05,1.60,0.29,-0.27,0.98
167,2.27,3.37,1.40,0.28,-0.27,0.98
168,1.76,3.16,1.39,0.28,-0.26,0.96
169,1.66,1.85,0.95,0.28,-0.27,0.96
170,1.45,0.72,0.66,0.29,-0.26,0.97
171,1.11,-0.34,0.06,0.29,-0.26,0.96
172,1.27,-1.74,-0.40,0.28,-0.27,0.98
173,1.31,-2.06,-0.70,0.27,-0.27,0.98
174,1.53,-1.98,-0.79,0.28,-0.27,0.97
175,1.69,-1.40,-0.95,0.28,-0.27,0.99
176,1.69,-1.62,-1.50,0.27,-0.26,0.98
177,1.15,-1.50,-1.83,0.28,-0.27,0.98
178,0.84,-1.62,-1.95,0.26,-0.27,0.98
179,0.47,-1.88,-1.59,0.26,-0.27,0.97
180,0.63,-2.53,-1.45,0.25,-0.28,1.00
181,0.50,-1.88,-1.53,0.25,-0.28,1.00
182,0.79,-0.96,-0.82,0.25,-0.28,1.00
183,1.50,-0.38,-0.67,0.25,-0.28,1.01
184,2.24,-0.89,-0.56,0.24,-0.28,1.00
185,2.60,-0.44,-0.50,0.25,-0.27,1.00
186,2.69,-0.15,-0.37,0.24,-0.27,1.00
187,2.99,-0.79,-0.05,0.23,-0.27,1.00
188,3.18,-1.24,0.44,0.23,-0.27,0.99
189,3.19,-1.13,0.95,0.24,-0.27,0.98
190,3.91,-1.85,1.25,0.24,-0.27,0.98
191,4.37,-2.60,1.30,0.24,-0.28,0.98
192,4.20,-2.41,1.68,0.25,-0.27,0.98
193,5.27,-5.60,1.42,0.25,-0.27,0.98
194,6.44,3.57,2.09,0.32,-0.28,1.00
195,8.05,-5.62,0.78,0.23,-0.30,1.02
196,3.88,-0.89,1.68,0.29,-0.28,0.97
197,3.28,-0.37,1.15,0.26,-0.27,0.98
198,2.75,-1.74,0.96,0.26,-0.27,0.99
199,3.25,-4.89,1.01,0.25,-0.27,0.99
200,2.75,-4.03,1.19,0.25,-0.27,0.99
201,2.66,-3.63,1.48,0.25,-0.27,1.00
202,2.76,-3.91,1.47,0.26,-0.27,1.00
203,2.81,-3.76,1.53,0.26,-0.27,0.99
204,2.76,-2.21,1.92,0.26,-0.26,0.99
205,2.78,-0.89,2.20,0.27,-0.26,1.00
206,2.38,-0.46,2.26,0.26,-0.26,1.00
207,2.40,0.50,2.46,0.27,-0.27,0.99
208,2.35,1.08,2.37,0.26,-0.26,0.99
209,2.99,0.29,1.92,0.27,-0.27,1.00
210,4.47,-1.30,1.50,0.27,-0.26,1.02
211,5.45,-1.39,1.28,0.27,-0.27,1.01
212,5.48,-0.70,1.28,0.27,-0.26,0.99
213,5.62,-0.95,1.08,0.27,-0.27,1.00
214,6.79,-4.17,0.87,0.28,-0.27,1.00
215,8.38,-6.40,0.50,0.27,-0.26,1.01
216,10.03,-7.69,0.37,0.28,-0.26,1.00
217,10.95,-10.41,0.08,0.28,-0.26,1.01
218,11.16,-8.73,0.55,0.28,-0.25,1.01
219,11.16,-7.39,0.76,0.29,-0.25,1.00
220,12.66,-8.12,0.46,0.29,-0.26,1.00
221,16.05,-10.34,0.24,0.29,-0.25,1.01
222,17.53,-10.43,-0.35,0.30,-0.25,1.00
223,17.07,-7.65,-0.76,0.30,-0.24,0.98
224,18.32,-9.16,-1.86,0.30,-0.25,0.97
225,22.06,-16.21,-3.88,0.29,-0.25,0.99
226,25.34,-19.51,-4.82,0.29,-0.26,1.01
227,32.37,-22.98,-5.47,0.27,-0.25,1.03
228,38.92,-24.56,-6.06,0.28,-0.26,1.04
229,43.51,-22.69,-5.73,0.29,-0.25,1.04
230,45.92,-18.49,-3.51,0.29,-0.24,1.02
231,48.27,-16.50,-4.12,0.30,-0.24,1.01
232,49.56,-14.73,-2.67,0.31,-0.23,0.98
233,45.16,-10.70,-5.10,0.30,-0.23,0.96
234,41.25,-7.95,-3.40,0.30,-0.22,0.92
235,35.76,-4.66,-3.10,0.31,-0.21,0.90
236,30.40,-4.53,-2.90,0.30,-0.20,0.90
237,24.75,-2.66,-2.02,0.31,-0.20,0.90
238,19.27,-0.18,-1.21,0.30,-0.18,0.90
239,14.98,0.64,-0.41,0.30,-0.19,0.92
240,11.39,-0.70,0.34,0.29,-0.20,0.94
241,7.31,-0.73,1.13,0.30,-0.18,0.93
242,4.15,-1.53,1.45,0.30,-0.19,0.95
243,2.78,-3.39,1.31,0.31,-0.19,0.97
244,2.27,-4.46,1.31,0.31,-0.19,1.00
245,1.36,-2.44,1.47,0.33,-0.18,1.01
246,0.44,-0.29,1.94,0.33,-0.19,1.01
247,0.24,-0.53,1.65,0.34,-0.18,1.03
248,0.32,-0.64,0.76,0.36,-0.19,1.03
249,-0.41,2.26,-0.18,0.36,-0.18,1.01
250,-1.33,3.21,-0.84,0.35,-0.18,1.00
251,-1.83,3.15,-1.16,0.34,-0.19,1.00
252,-2.60,3.62,-0.95,0.31,-0.18,1.00
253,-3.42,3.50,-1.01,0.31,-0.18,0.98
254,-3.91,4.11,-0.55,0.31,-0.18,0.97
255,-4.63,4.64,-0.35,0.31,-0.18,0.97
256,-5.21,3.54,0.26,0.30,-0.18,0.97
257,-5.02,1.08,0.87,0.28,-0.19,0.98
258,-4.82,-0.73,1.63,0.29,-0.18,0.98
259,-5.69,-0.63,1.89,0.31,-0.18,0.98
260,-6.15,0.26,1.94,0.32,-0.18,0.98
261,-6.95,0.53,1.63,0.32,-0.18,0.99
262,-7.33,1.30,1.19,0.33,-0.19,0.99
263,-6.87,2.43,0.79,0.34,-0.20,1.01
264,-5.30,2.09,0.02,0.33,-0.19,1.03
265,-2.70,0.34,-0.46,0.32,-0.20,1.04
266,-0.99,-0.52,-0.72,0.32,-0.20,1.04
267,-0.69,0.26,-0.85,0.31,-0.20,1.03
268,-0.14,2.05,-1.19,0.32,-0.19,1.02
269,-0.05,2.67,-1.57,0.32,-0.21,1.02
270,0.03,3.27,-1.82,0.31,-0.19,1.01
271,-0.32,3.21,-1.54,0.28,-0.19,1.01
272,-0.61,1.80,-1.34,0.27,-0.20,1.00
273,-0.87,-0.26,-0.37,0.27,-0.20,1.01
274,-0.75,-1.27,0.05,0.27,-0.20,1.01
275,-0.75,0.02,0.93,0.28,-0.20,1.01
276,-0.67,0.99,1.63,0.27,-0.19,1.00
277,-0.18,1.13,2.17,0.28,-0.20,1.01
278,-0.41,1.94,2.72,0.30,-0.20,1.00
279,-0.44,2.99,2.81,0.30,-0.20,1.00
280,-0.46,2.93,2.38,0.31,-0.21,1.00
281,0.18,2.60,2.29,0.31,-0.20,1.01
282,0.40,1.71,2.09,0.30,-0.19,1.01
283,0.47,0.98,1.97,0.31,-0.19,1.00
284,0.58,0.09,1.50,0.31,-0.19,1.00
285,0.34,0.06,1.33,0.31,-0.19,1.01
286,0.41,-0.08,0.85,0.31,-0.19,1.00
287,0.47,-0.92,0.64,0.31,-0.19,1.00
288,0.26,-1.22,0.18,0.31,-0.19,1.00
289,0.18,-0.38,0.12,0.31,-0.19,1.00
290,-0.05,0.27,0.21,0.30,-0.19,1.00
291,0.02,1.40,0.73,0.30,-0.20,1.00
292,0.00,2.35,0.87,0.30,-0.19,1.00
293,-0.06,2.27,1.08,0.29,-0.20,0.99
294,0.09,2.18,1.02,0.30,-0.19,1.00
295,-0.26,2.64,1.22,0.30,-0.19,0.99
296,-0.49,3.21,0.95,0.30,-0.20,0.98
297,-0.35,3.47,0.98,0.29,-0.19,0.99
298,-0.05,2.12,0.96,0.30,-0.20,0.99
299,-0.11,1.34,0.89,0.29,-0.20,0.99
300,-0.58,2.34,1.15,0.29,-0.20,0.98
301,-0.96,2.87,1.10,0.29,-0.20,0.99
302,-1.05,3.02,1.40,0.29,-0.20,0.98
303,-1.69,2.70,1.34,0.29,-0.19,0.99
304,-1.65,2.63,1.56,0.29,-0.20,1.00
305,-1.71,2.40,1.48,0.29,-0.20,0.99
306,-1.51,2.29,1.62,0.29,-0.19,1.00
307,-1.51,1.89,1.77,0.29,-0.20,1.00
308,-1.91,1.95,1.53,0.29,-0.20,1.00
309,-1.53,2.40,1.65,0.29,-0.20,1.01
310,-1.18,3.15,1.36,0.30,-0.20,1.02
311,-0.43,3.04,1.25,0.29,-0.20,1.00
312,-0.31,3.37,1.24,0.29,-0.20,0.98
313,-0.50,3.73,0.89,0.29,-0.20,0.99
314,-0.73,3.33,1.08,0.29,-0.20,0.97
315,-1.04,2.66,1.24,0.27,-0.20,0.97
316,-1.73,2.61,1.42,0.28,-0.20,0.96
317,-1.79,2.47,1.69,0.28,-0.20,0.97
318,-2.43,3.07,2.06,0.28,-0.20,0.97
319,-2.64,3.08,2.17,0.28,-0.20,0.97
320,-2.46,3.22,2.02,0.29,-0.20,0.99
321,-2.61,3.02,2.02,0.29,-0.20,0.99
322,-2.23,2.52,1.95,0.29,-0.21,0.99
323,-2.15,2.08,2.11,0.29,-0.19,1.01
324,-1.69,1.89,2.27,0.28,-0.20,1.01
325,-1.01,1.65,2.35,0.29,-0.21,1.01
326,-0.89,1.73,2.12,0.30,-0.20,1.00
327,-0.89,1.82,2.09,0.30,-0.20,1.00
328,-0.69,2.47,1.89,0.30,-0.21,1.00
329,-1.10,2.61,1.66,0.31,-0.20,1.00
330,-0.95,2.53,1.44,0.30,-0.20,1.00
331,-0.93,2.46,1.33,0.29,-0.20,0.98
332,-1.01,2.61,1.48,0.29,-0.20,0.99
333,-1.34,2.17,1.59,0.28,-0.20,0.98
334,-2.24,0.61,1.80,0.27,-0.19,0.98
335,-2.46,-0.95,1.86,0.28,-0.19,1.00
336,-2.69,-1.28,2.23,0.28,-0.19,0.99
337,-2.52,-0.47,2.18,0.29,-0.19,1.00
338,-2.05,0.56,2.24,0.29,-0.20,1.02
339,-2.08,0.61,2.26,0.30,-0.19,1.01
340,-1.88,0.49,2.11,0.30,-0.19,1.01
341,-1.91,0.58,2.02,0.30,-0.19,0.99
342,-1.76,0.60,1.80,0.31,-0.19,0.99
343,-1.79,0.92,1.59,0.32,-0.19,1.00
344,-1.98,1.21,0.76,0.32,-0.19,0.99
345,-2.18,0.34,0.21,0.31,-0.20,0.99
346,-1.98,-0.56,0.03,0.30,-0.20,0.98
347,-2.58,-2.09,-0.11,0.29,-0.20,0.98
348,-2.27,-0.34,-0.05,0.30,-0.21,0.98
349,-2.43,2.27,-0.49,0.31,-0.20,0.96
350,-3.27,1.59,-0.41,0.29,-0.20,0.97
351,-2.73,-0.96,-0.47,0.28,-0.21,0.99
352,-3.10,0.02,-0.38,0.28,-0.21,0.97
353,-3.50,1.53,0.08,0.27,-0.21,0.97
354,-3.94,1.28,0.41,0.27,-0.21,0.98
355,-4.31,0.27,0.87,0.27,-0.21,0.98
356,-4.82,-0.37,0.92,0.27,-0.21,0.99
357,-4.67,0.38,0.84,0.28,-0.21,0.99
358,-4.60,1.33,0.89,0.28,-0.21,1.01
359,-3.86,0.89,0.50,0.29,-0.22,1.02
360,-3.86,0.38,0.58,0.28,-0.21,1.03
361,-3.47,-0.37,0.72,0.28,-0.21,1.02
362,-2.70,-1.18,1.07,0.28,-0.22,1.05
363,-2.34,-0.31,0.96,0.29,-0.21,1.03
364,-1.62,0.15,1.08,0.29,-0.22,1.04
365,-0.64,0.17,1.08,0.28,-0.22,1.04
366,-0.27,0.98,1.10,0.29,-0.21,1.03
367,0.79,0.99,1.25,0.27,-0.22,1.02
368,1.37,1.08,1.10,0.28,-0.22,1.03
369,1.74,1.36,1.34,0.28,-0.21,1.01
370,1.71,1.79,1.63,0.28,-0.22,0.99
371,1.40,0.98,1.62,0.27,-0.20,0.99
372,1.15,0.03,1.82,0.27,-0.21,0.99
373,1.01,0.08,2.27,0.27,-0.22,0.98
374,0.61,0.47,2.29,0.28,-0.21,0.98
375,0.60,1.30,2.26,0.29,-0.21,0.99
376,0.11,1.15,2.23,0.29,-0.21,0.98
377,-0.41,0.56,2.08,0.29,-0.21,0.98
378,-0.20,0.38,2.23,0.29,-0.21,0.99
379,-0.18,0.58,2.14,0.29,-0.21,0.98
380,-0.03,0.66,2.14,0.30,-0.21,1.00
381,-0.03,0.90,1.88,0.30,-0.21,0.98
382,0.27,1.15,1.62,0.29,-0.21,1.00
383,-0.02,0.20,1.56,0.29,-0.21,1.00
384,-0.02,0.24,1.57,0.29,-0.21,1.00
385,-0.24,0.03,1.42,0.29,-0.21,1.00
386,-0.26,0.05,1.33,0.29,-0.21,0.99
387,0.12,-0.27,1.21,0.29,-0.22,1.00
388,0.50,-1.21,1.08,0.29,-0.21,1.01
389,1.69,-1.71,0.95,0.29,-0.22,1.01
390,2.24,-2.50,0.95,0.29,-0.21,1.01
391,2.52,-2.76,0.95,0.28,-0.22,1.00
392,2.67,-2.67,1.22,0.28,-0.22,1.01
393,3.11,-3.08,1.31,0.27,-0.21,1.01
394,3.30,-2.93,1.66,0.28,-0.21,1.00
395,3.19,-2.53,1.95,0.29,-0.21,0.99
396,2.66,-2.03,1.79,0.29,-0.21,0.99
397,2.70,-1.83,1.79,0.29,-0.21,0.99
398,2.41,-1.24,1.85,0.29,-0.21,0.99
399,1.77,-0.24,1.66,0.30,-0.21,0.98
400,1.02,0.84,1.94,0.31,-0.20,0.98
401,0.81,1.28,1.95,0.31,-0.21,0.98
402,0.34,1.07,1.82,0.31,-0.20,0.98
403,-0.11,0.29,1.79,0.30,-0.21,0.98
404,0.20,0.43,1.54,0.30,-0.20,0.99
405,0.06,0.37,1.24,0.30,-0.20,1.01
406,0.27,0.32,1.05,0.31,-0.21,1.01
407,0.69,-0.20,0.93,0.30,-0.22,1.00
408,1.04,-1.66,1.07,0.29,-0.21,1.03
409,1.13,-1.77,0.72,0.31,-0.22,1.01
410,1.34,-0.15,0.53,0.31,-0.21,1.01
411,1.68,0.21,0.37,0.30,-0.21,1.02
412,2.38,-0.24,0.11,0.30,-0.20,1.02
413,2.41,-0.52,0.18,0.29,-0.22,1.01
414,2.03,-0.58,0.49,0.29,-0.21,1.02
415,1.51,-0.14,0.72,0.28,-0.21,1.00
416,1.31,-0.11,0.92,0.29,-0.20,1.01
417,1.13,0.43,0.87,0.29,-0.22,1.00
418,0.64,0.90,0.93,0.29,-0.20,1.00
419,0.50,0.98,1.16,0.28,-0.21,0.99
420,0.53,0.66,1.27,0.28,-0.21,0.99
421,0.24,1.22,1.08,0.29,-0.20,0.99
422,-0.20,0.98,1.33,0.28,-0.20,0.99
423,-0.12,1.39,1.57,0.28,-0.21,0.98
424,-0.41,1.22,1.37,0.29,-0.20,0.98
425,-0.12,0.41,1.24,0.29,-0.21,1.00
426,-0.18,0.85,0.82,0.30,-0.21,0.98
427,0.06,0.63,0.66,0.30,-0.20,0.99
428,0.35,0.03,0.49,0.29,-0.21,0.99
429,0.40,-0.61,0.41,0.29,-0.20,1.00
430,0.17,-0.98,0.46,0.28,-0.20,0.99
431,-0.26,-1.10,0.53,0.29,-0.21,0.99
432,-0.43,-0.55,0.61,0.29,-0.20,0.99
433,-0.21,1.07,0.64,0.30,-0.20,1.01
434,0.23,1.92,0.70,0.29,-0.20,1.01
435,0.53,2.08,0.46,0.28,-0.20,1.00
436,0.27,2.50,0.72,0.28,-0.20,1.00
437,0.05,2.37,0.72,0.28,-0.20,0.99
438,0.24,1.40,1.11,0.27,-0.21,0.98
439,0.12,0.87,1.07,0.27,-0.21,0.99
440,-0.11,-0.03,1.02,0.28,-0.20,0.97
441,-0.46,-1.15,1.25,0.28,-0.20,0.97
442,-1.24,-0.99,1.54,0.28,-0.20,0.96
443,-1.60,-0.18,1.59,0.29,-0.21,0.98
444,-1.57,-0.08,1.31,0.29,-0.20,0.98
445,-1.25,-0.26,0.93,0.30,-0.20,1.00
446,-0.98,-0.41,0.81,0.30,-0.20,0.98
447,-0.99,0.41,0.64,0.30,-0.20,1.00
448,-0.61,1.11,0.53,0.30,-0.21,0.99
449,-0.49,1.15,0.24,0.29,-0.21,0.99
450,-0.58,0.34,0.55,0.28,-0.21,1.00
451,-0.73,-0.23,0.73,0.28,-0.20,0.99
452,-0.66,-1.25,0.75,0.28,-0.20,0.99
453,-0.61,-1.33,0.85,0.28,-0.21,1.00
454,-0.85,-1.05,1.11,0.27,-0.21,0.99
455,-0.64,-0.76,1.45,0.28,-0.20,1.00
456,-0.58,-0.73,1.69,0.28,-0.21,1.00
457,-0.43,-1.05,1.56,0.29,-0.20,1.00
458,-0.47,0.02,1.65,0.30,-0.20,1.00
459,-0.58,1.05,1.77,0.29,-0.21,1.00
460,-0.52,1.40,1.95,0.29,-0.21,1.01
461,-0.40,1.63,1.95,0.29,-0.20,0.99
462,-0.47,1.54,2.03,0.30,-0.20,0.99
463,-0.50,1.28,1.86,0.31,-0.20,1.01
464,-0.87,2.00,1.54,0.30,-0.20,1.00
465,-0.84,1.57,0.92,0.31,-0.20,0.99
466,-0.40,1.10,0.52,0.30,-0.21,1.00
467,-0.67,0.63,0.26,0.30,-0.21,1.01
468,-0.46,0.46,0.41,0.29,-0.21,1.00
469,0.12,0.20,0.50,0.29,-0.21,1.00
470,0.32,0.17,0.29,0.29,-0.21,1.01
471,0.43,0.08,0.15,0.28,-0.21,1.01
472,0.63,-0.18,0.56,0.27,-0.21,1.00
473,0.75,-0.34,0.78,0.27,-0.21,0.99
474,0.18,-0.70,1.02,0.27,-0.21,0.99
475,-0.06,-1.25,1.36,0.27,-0.21,0.99
476,0.08,-1.59,1.60,0.27,-0.21,0.99
477,-0.38,-2.02,1.44,0.27,-0.21,1.00
478,-0.44,-3.18,1.88,0.28,-0.21,0.99
479,-0.47,-3.39,1.94,0.28,-0.21,1.00
480,-0.78,-3.25,2.00,0.29,-0.21,1.01
481,-0.47,-2.43,1.83,0.30,-0.21,1.02
482,-0.35,-1.66,1.73,0.29,-0.22,1.02
483,-0.44,-0.46,1.82,0.30,-0.21,1.01
484,0.38,-0.08,1.73,0.30,-0.21,1.00
485,0.70,0.21,1.54,0.29,-0.21,1.00
486,0.96,0.40,1.74,0.30,-0.21,1.01
487,0.95,0.90,1.74,0.29,-0.22,0.99
488,1.11,0.50,1.68,0.29,-0.21,0.99
489,0.35,-0.41,1.62,0.30,-0.21,0.99
490,0.40,-0.96,1.37,0.30,-0.20,1.00
491,0.08,-1.44,1.21,0.30,-0.20,0.99
492,-0.08,-1.80,1.16,0.30,-0.20,0.99
493,0.24,-1.94,1.13,0.30,-0.21,1.00
494,0.32,-1.40,0.79,0.30,-0.22,1.01
495,1.16,-0.56,0.84,0.31,-0.22,1.01
496,1.54,0.69,0.75,0.29,-0.21,1.01
497,1.98,0.67,1.13,0.29,-0.22,1.01
498,2.26,1.04,1.13,0.29,-0.21,0.99
499,2.53,1.33,1.39,0.29,-0.21,1.00
500,2.47,1.33,1.74,0.29,-0.21,0.98
501,2.00,1.28,1.68,0.29,-0.21,0.97
502,1.36,0.99,1.65,0.29,-0.20,0.97
503,0.72,0.41,1.71,0.30,-0.20,0.97
504,0.29,0.15,1.42,0.30,-0.20,0.96
505,-0.27,0.66,1.27,0.31,-0.20,0.97
506,-0.14,-0.24,0.82,0.30,-0.20,0.98
507,-0.15,-1.19,0.41,0.31,-0.21,0.98
508,0.08,-1.71,-0.12,0.31,-0.21,0.99
509,0.61,-2.44,-0.56,0.31,-0.21,1.00
510,0.85,-4.14,-1.01,0.29,-0.21,1.01
511,1.47,-4.43,-1.28,0.30,-0.22,1.01
512,1.69,-4.34,-1.01,0.30,-0.21,1.01
513,1.89,-2.82,-1.28,0.30,-0.21,1.01
514,1.53,-1.74,-0.82,0.28,-0.21,1.00
515,1.08,-1.98,-0.46,0.27,-0.21,1.00
516,0.40,-2.17,-0.03,0.27,-0.20,0.99
517,0.27,-2.84,0.08,0.27,-0.21,0.99
518,-0.29,-2.14,0.35,0.28,-0.21,1.00
519,-0.31,-1.36,0.67,0.29,-0.20,0.99
520,-0.29,-1.18,0.84,0.29,-0.20,0.99
521,-0.26,-1.44,0.85,0.28,-0.21,1.00
522,-0.78,-1.85,0.75,0.28,-0.20,0.98
523,-1.39,-1.60,0.99,0.29,-0.20,0.97
524,-1.88,-1.51,1.19,0.28,-0.20,0.98
525,-1.94,-1.51,1.37,0.29,-0.20,0.98
526,-1.89,-3.24,1.51,0.28,-0.20,0.97
527,-1.53,-5.10,1.40,0.30,-0.20,0.98
528,-1.86,-5.65,1.13,0.30,-0.20,0.98
529,-2.18,-6.49,0.60,0.31,-0.20,0.98
530,-1.89,-7.30,0.35,0.31,-0.20,0.98
531,-1.88,-6.67,0.44,0.30,-0.20,0.98
532,-2.20,-6.27,0.26,0.31,-0.20,0.98
533,-2.61,-5.36,0.53,0.31,-0.20,0.97
534,-2.87,-3.88,0.60,0.31,-0.20,0.96
535,-3.34,-5.21,0.44,0.30,-0.19,0.96
536,-3.57,-7.73,0.17,0.31,-0.21,0.96
537,-4.53,-6.37,0.49,0.32,-0.20,0.96
538,-5.42,-4.46,0.44,0.31,-0.20,0.95
539,-5.71,-4.53,0.35,0.31,-0.20,0.94
540,-5.68,-5.47,0.64,0.31,-0.20,0.93
541,-5.80,-5.07,0.96,0.30,-0.20,0.93
542,-6.38,-4.73,1.02,0.30,-0.19,0.92
543,-7.68,-4.79,1.22,0.30,-0.20,0.91
544,-8.46,-5.44,1.19,0.30,-0.20,0.90
545,-9.53,-6.90,1.07,0.30,-0.20,0.89
546,-10.52,-7.97,1.05,0.32,-0.20,0.89
547,-11.97,-7.36,0.96,0.31,-0.20,0.88
548,-13.89,-5.63,1.31,0.30,-0.20,0.87
549,-15.05,-5.39,1.66,0.28,-0.21,0.87
550,-16.32,-4.95,2.17,0.26,-0.21,0.85
551,-19.25,-7.83,3.27,0.23,-0.20,0.84
552,-22.63,-15.66,4.52,0.19,-0.21,0.82
553,-27.60,-26.66,5.37,0.16,-0.19,0.78
554,-34.47,-39.62,6.90,0.14,-0.19,0.74
555,-42.38,-57.44,9.54,0.09,-0.19,0.69
556,-55.28,-76.73,13.42,0.09,-0.19,0.63
557,-71.16,-87.82,19.45,0.09,-0.19,0.57
558,-86.63,-76.23,26.69,0.19,-0.14,0.60
559,-93.62,-83.98,31.13,0.13,-0.17,0.58
560,-98.64,-92.64,36.70,0.10,-0.22,0.51
561,-104.15,-104.95,43.79,0.12,-0.22,0.50
562,-114.41,-110.35,51.34,0.16,-0.24,0.49
563,-119.08,-108.90,57.80,0.24,-0.27,0.49
564,-118.87,-104.93,62.05,0.31,-0.30,0.53
565,-116.81,-95.31,64.37,0.38,-0.31,0.54
566,-118.11,-85.71,65.95,0.40,-0.32,0.49
567,-121.88,-80.58,66.84,0.38,-0.32,0.43
568,-125.91,-84.55,67.71,0.33,-0.33,0.41
569,-131.25,-96.06,69.02,0.30,-0.35,0.36
570,-144.60,-95.68,70.90,0.32,-0.35,0.29
571,-158.70,-83.07,72.14,0.32,-0.40,0.26
572,-173.68,-56.98,73.31,0.34,-0.42,0.27
573,-183.83,-47.07,74.87,0.26,-0.46,0.30
574,-187.54,-56.15,78.32,0.17,-0.51,0.31
575,-189.85,-64.50,82.55,0.11,-0.53,0.32
576,-191.04,-73.37,89.92,0.08,-0.57,0.32
577,-191.31,-88.81,98.38,0.11,-0.61,0.34
578,-190.89,-105.54,105.24,0.19,-0.64,0.33
579,-187.10,-119.79,107.07,0.24,-0.72,0.30
580,-178.27,-133.31,105.08,0.31,-0.71,0.31
581,-166.18,-141.68,102.00,0.34,-0.73,0.31
582,-157.01,-147.53,97.28,0.41,-0.76,0.28
583,-152.90,-148.02,89.10,0.47,-0.79,0.23
584,-151.27,-145.82,81.28,0.45,-0.82,0.18
585,-152.24,-143.36,79.89,0.39,-0.84,0.12
586,-153.60,-147.77,84.15,0.31,-0.87,0.10
587,-154.99,-145.48,88.27,0.33,-0.89,0.07
588,-155.13,-132.53,94.49,0.34,-0.91,0.06
589,-156.49,-116.44,101.31,0.38,-0.91,0.07
590,-156.66,-99.04,105.18,0.47,-0.94,0.08
591,-152.95,-83.18,104.87,0.49,-0.98,0.11
592,-147.74,-72.70,102.31,0.44,-1.01,0.10
593,-144.24,-70.96,100.78,0.37,-1.04,0.07
594,-143.08,-74.35,99.11,0.35,-1.06,0.03
595,-144.53,-80.47,96.14,0.38,-1.09,0.03
596,-145.40,-83.05,88.72,0.42,-1.10,0.05
597,-145.40,-79.73,86.63,0.41,-1.12,0.04
598,-146.89,-78.92,87.63,0.39,-1.11,0.05
599,-148.53,-76.87,88.66,0.40,-1.11,0.04
600,-144.70,-76.23,89.60,0.34,-1.14,-0.00
601,-149.11,-67.62,93.24,0.31,-1.11,-0.04
602,-151.86,-66.03,100.60,0.22,-1.12,-0.09
603,-152.53,-69.40,110.31,0.11,-1.11,-0.20
604,-162.73,-71.62,121.51,0.11,-1.14,-0.30
605,-169.69,-75.59,125.34,0.18,-1.17,-0.37
606,-179.44,-70.93,123.11,0.30,-1.23,-0.38
607,-185.33,-60.96,116.82,0.39,-1.27,-0.32
608,-190.50,-56.76,107.48,0.47,-1.31,-0.25
609,-192.27,-56.63,95.47,0.54,-1.34,-0.18
