,gyro_x,gyro_y,gyro_z,acce_x,acce_y,acce_z
0,2.29,-2.08,0.81,0.23,-0.27,0.97
1,1.77,-1.82,0.60,0.24,-0.26,0.97
2,1.27,-1.28,0.11,0.23,-0.27,0.97
3,0.73,-1.62,0.11,0.23,-0.27,0.98
4,0.40,-1.19,0.09,0.23,-0.27,0.98
5,0.27,-1.21,-0.31,0.22,-0.27,0.99
6,-0.14,-1.11,-0.49,0.22,-0.28,0.99
7,-0.27,-0.93,-0.81,0.22,-0.28,1.00
8,-0.08,-1.47,-0.84,0.21,-0.28,1.00
9,0.09,-2.17,-0.90,0.21,-0.28,1.00
10,-0.11,-1.59,-0.73,0.21,-0.27,1.00
11,0.05,-0.90,-0.70,0.20,-0.28,1.01
12,0.21,-0.47,-0.58,0.20,-0.28,1.00
13,0.85,-1.21,-0.56,0.20,-0.28,0.99
14,0.69,-1.31,-0.11,0.20,-0.28,1.00
15,0.29,-0.50,0.00,0.19,-0.28,0.99
16,0.43,-0.95,0.26,0.18,-0.28,0.99
17,0.31,-2.44,0.95,0.18,-0.28,0.99
18,0.20,-2.66,1.04,0.19,-0.29,1.00
19,0.17,-2.64,1.39,0.19,-0.29,1.00
20,0.72,-3.21,1.30,0.20,-0.29,1.00
21,1.13,-3.97,1.36,0.21,-0.29,1.00
22,1.24,-4.43,1.22,0.22,-0.30,1.01
23,1.34,-3.82,1.08,0.23,-0.29,1.01
24,1.40,-2.67,0.84,0.23,-0.28,1.01
25,2.02,-2.37,0.72,0.23,-0.29,1.00
26,2.49,-1.27,0.70,0.23,-0.29,1.01
27,2.43,0.38,0.26,0.24,-0.29,1.00
28,2.15,1.82,-0.08,0.23,-0.29,1.00
29,2.58,1.22,-0.47,0.23,-0.29,1.00
30,2.60,1.22,-0.35,0.22,-0.29,0.99
31,2.40,1.80,-0.75,0.22,-0.28,0.99
32,2.60,1.56,-0.69,0.21,-0.28,0.99
33,2.44,1.82,-0.70,0.21,-0.28,0.98
34,1.85,1.47,-0.69,0.20,-0.28,0.98
35,1.45,0.50,-0.81,0.20,-0.28,0.98
36,0.82,0.38,-0.98,0.20,-0.28,0.97
37,0.44,-0.40,-1.01,0.20,-0.28,0.96
38,0.78,-1.36,-0.99,0.19,-0.28,0.98
39,0.47,-1.31,-1.05,0.20,-0.29,0.98
40,0.32,-1.65,-1.19,0.20,-0.28,0.98
41,0.37,-1.89,-1.13,0.20,-0.28,0.99
42,0.50,-2.05,-0.67,0.19,-0.28,0.99
43,0.82,-1.69,-0.82,0.20,-0.29,1.00
44,0.70,-1.04,-0.84,0.19,-0.29,0.99
45,0.85,-0.82,-0.63,0.19,-0.28,0.99
46,1.18,-0.69,-0.52,0.19,-0.29,1.00
47,1.02,-0.60,-0.31,0.18,-0.29,1.00
48,1.08,-1.39,-0.15,0.19,-0.29,0.99
49,0.90,-2.75,-0.03,0.18,-0.29,0.99
50,0.72,-3.18,0.03,0.19,-0.28,0.99
51,0.89,-3.13,0.43,0.18,-0.28,0.99
52,1.25,-2.24,0.66,0.18,-0.28,0.99
53,1.42,-1.47,0.92,0.18,-0.28,0.99
54,1.18,0.53,1.40,0.19,-0.28,0.99
55,1.24,1.10,1.62,0.18,-0.28,0.99
56,1.63,0.21,1.80,0.18,-0.28,0.99
57,1.48,0.70,2.08,0.19,-0.27,0.99
58,1.04,0.78,2.34,0.19,-0.27,0.99
59,0.95,-0.56,2.41,0.20,-0.27,1.00
60,0.98,-1.60,2.21,0.20,-0.27,0.99
61,0.63,-2.55,2.09,0.21,-0.27,0.99
62,0.85,-1.98,1.63,0.22,-0.27,1.00
63,1.42,-0.32,1.36,0.22,-0.27,1.00
64,1.50,-0.38,1.24,0.21,-0.27,1.00
65,1.79,-0.24,1.04,0.21,-0.27,1.00
66,1.91,0.34,1.07,0.21,-0.26,1.00
67,1.80,0.60,0.84,0.21,-0.27,0.99
68,1.68,0.85,0.76,0.21,-0.27,0.98
69,1.27,1.30,0.58,0.19,-0.26,0.97
70,0.98,1.54,0.87,0.20,-0.27,0.98
71,0.69,1.79,0.85,0.20,-0.26,0.98
72,0.29,1.59,0.99,0.19,-0.27,0.99
73,0.41,0.09,0.89,0.19,-0.26,0.99
74,0.15,-0.23,0.99,0.19,-0.27,0.99
75,0.06,-0.37,1.01,0.19,-0.27,0.99
76,-0.14,-0.44,1.25,0.18,-0.27,0.98
77,-0.17,-1.40,1.30,0.19,-0.28,0.99
78,-0.06,-1.82,0.99,0.19,-0.27,0.98
79,0.08,-2.26,0.90,0.19,-0.28,0.99
80,-0.09,-2.26,1.08,0.19,-0.27,1.00
81,0.06,-2.17,1.15,0.18,-0.28,1.00
82,-0.09,-1.11,1.63,0.18,-0.26,1.00
83,-0.26,-0.38,2.06,0.18,-0.27,0.98
84,-0.40,-0.61,2.05,0.18,-0.27,0.98
85,-0.49,-1.42,2.37,0.19,-0.27,0.98
86,-0.79,-1.27,2.47,0.19,-0.27,0.99
87,-1.22,-1.88,2.47,0.19,-0.27,0.99
88,-1.36,-2.37,2.53,0.20,-0.27,0.99
89,-1.24,-2.90,2.14,0.21,-0.27,0.99
90,-1.45,-2.17,2.00,0.21,-0.27,0.99
91,-1.65,-1.27,2.03,0.21,-0.27,0.99
92,-2.03,-1.19,1.80,0.21,-0.27,0.99
93,-2.41,-1.10,1.94,0.21,-0.27,0.98
94,-2.32,-0.55,1.34,0.21,-0.27,0.98
95,-2.17,-0.47,1.13,0.21,-0.27,1.00
96,-1.91,-0.27,1.19,0.21,-0.26,1.00
97,-1.82,0.34,1.51,0.20,-0.27,1.00
98,-1.85,0.27,1.66,0.20,-0.27,1.00
99,-1.83,0.12,1.83,0.20,-0.28,1.00
100,-1.33,-0.37,1.42,0.20,-0.28,1.01
101,-1.16,-0.61,1.16,0.20,-0.28,1.01
102,-0.76,-0.21,1.36,0.19,-0.28,1.00
103,-0.66,0.29,1.62,0.19,-0.28,0.99
104,-1.28,0.44,1.88,0.19,-0.27,0.99
105,-1.25,-0.60,2.31,0.19,-0.27,0.98
106,-1.57,-0.90,2.41,0.19,-0.28,0.98
107,-2.37,-0.26,2.79,0.19,-0.28,0.97
108,-2.75,-0.56,2.90,0.20,-0.28,0.97
109,-3.04,-2.60,2.46,0.20,-0.28,0.97
110,-3.05,-4.66,1.98,0.21,-0.28,0.98
111,-3.50,-5.25,1.66,0.21,-0.29,0.99
112,-3.34,-5.56,1.50,0.21,-0.28,1.00
113,-3.24,-5.79,1.44,0.21,-0.29,1.01
114,-2.84,-5.48,1.60,0.21,-0.29,1.01
115,-2.69,-4.79,1.60,0.22,-0.29,1.02
116,-2.40,-2.93,1.74,0.23,-0.29,1.02
117,-2.03,-1.69,1.86,0.23,-0.29,1.02
118,-1.89,-0.23,1.82,0.23,-0.29,1.03
119,-1.45,1.07,2.15,0.22,-0.30,1.03
120,-1.37,2.34,2.05,0.22,-0.30,1.02
121,-1.15,2.46,2.03,0.22,-0.29,1.02
122,-0.85,2.24,2.00,0.22,-0.30,1.02
123,-0.64,2.03,2.00,0.22,-0.30,1.02
124,-0.69,2.15,1.92,0.21,-0.30,1.02
125,-0.03,2.23,1.95,0.21,-0.30,1.01
126,0.24,1.39,1.83,0.21,-0.30,1.00
127,0.03,2.66,1.66,0.21,-0.29,1.01
128,-0.03,2.82,1.74,0.20,-0.29,1.01
129,-0.41,2.09,1.91,0.19,-0.29,1.00
130,-0.90,0.50,2.15,0.19,-0.29,1.01
131,-0.99,-0.53,2.05,0.20,-0.29,1.01
132,-0.49,-0.67,1.79,0.21,-0.30,1.02
133,-0.15,-0.93,1.89,0.21,-0.29,1.01
134,0.20,-0.84,1.68,0.21,-0.29,1.03
135,0.27,-0.41,1.88,0.21,-0.29,1.01
136,0.23,0.00,1.71,0.21,-0.29,1.02
137,0.05,0.69,1.74,0.21,-0.29,1.01
138,0.76,0.47,1.68,0.20,-0.29,1.02
139,0.90,0.63,1.48,0.21,-0.29,1.02
140,0.85,0.61,1.66,0.21,-0.29,1.01
141,1.04,0.52,1.79,0.20,-0.28,1.01
142,0.95,0.00,1.60,0.20,-0.29,1.01
143,1.10,-0.03,1.66,0.20,-0.29,1.00
144,1.36,0.79,1.85,0.21,-0.29,1.01
145,1.76,1.69,1.80,0.21,-0.29,1.00
146,1.60,0.92,2.12,0.20,-0.29,1.00
147,1.74,-0.73,2.20,0.20,-0.29,0.99
148,1.92,-0.49,2.15,0.20,-0.29,0.99
149,1.68,0.14,1.89,0.21,-0.29,0.99
150,1.63,0.98,1.80,0.21,-0.29,1.00
151,1.54,-0.08,2.09,0.21,-0.28,0.99
152,1.50,-0.66,1.69,0.21,-0.29,0.99
153,0.99,-0.26,1.66,0.22,-0.29,1.00
154,1.05,-0.46,1.28,0.21,-0.28,0.99
155,1.25,-1.02,0.98,0.21,-0.29,1.00
156,1.39,-1.45,0.85,0.21,-0.29,1.01
157,1.56,-1.27,0.76,0.21,-0.28,1.00
158,1.27,-0.34,0.93,0.21,-0.28,1.00
159,1.02,0.32,0.67,0.21,-0.28,1.00
160,1.24,-0.21,0.58,0.21,-0.29,0.99
161,1.07,-0.09,0.12,0.21,-0.28,0.98
162,0.93,0.35,0.02,0.20,-0.28,0.97
163,0.85,0.38,0.00,0.20,-0.28,0.97
164,0.58,-0.17,0.20,0.19,-0.29,0.97
165,0.11,-0.73,0.12,0.18,-0.28,0.97
166,-1.01,-1.16,0.20,0.18,-0.29,0.95
167,-2.35,-2.34,0.41,0.17,-0.27,0.95
168,-2.92,-4.34,0.43,0.17,-0.29,0.96
169,-3.07,-5.74,0.49,0.18,-0.29,0.98
170,-2.90,-6.95,0.58,0.18,-0.29,0.99
171,-2.61,-7.39,0.61,0.19,-0.29,1.00
172,-2.34,-6.69,0.61,0.19,-0.29,1.02
173,-1.94,-5.53,0.79,0.18,-0.29,1.02
174,-1.59,-4.70,1.07,0.18,-0.29,1.03
175,-0.67,-4.79,1.31,0.18,-0.30,1.05
176,0.11,-4.34,1.39,0.17,-0.29,1.05
177,1.04,-3.11,2.21,0.17,-0.29,1.04
178,1.85,-1.79,2.78,0.16,-0.29,1.02
179,2.32,-0.44,3.40,0.16,-0.29,1.01
180,3.13,-1.92,3.86,0.16,-0.29,1.01
181,3.31,-2.56,4.44,0.16,-0.29,1.00
182,3.40,-2.20,5.10,0.17,-0.28,0.99
183,3.51,-2.21,5.69,0.17,-0.28,0.98
184,3.07,-3.08,6.34,0.17,-0.28,0.97
185,2.93,-4.12,6.76,0.18,-0.28,0.97
186,2.89,-5.07,7.30,0.20,-0.28,0.97
187,2.44,-6.23,7.21,0.20,-0.27,0.96
188,2.63,-5.89,7.30,0.21,-0.28,0.98
189,2.70,-5.07,7.11,0.22,-0.28,0.99
190,2.89,-4.87,6.82,0.23,-0.28,0.98
191,2.87,-5.10,6.46,0.23,-0.28,0.99
192,2.67,-4.50,6.38,0.24,-0.27,0.99
193,2.75,-4.26,6.17,0.23,-0.28,0.97
194,2.35,-4.12,6.24,0.24,-0.27,0.98
195,2.35,-3.89,5.92,0.24,-0.27,0.98
196,2.05,-3.28,5.91,0.25,-0.27,0.98
197,1.54,-2.70,5.27,0.25,-0.27,0.98
198,1.40,-2.31,5.34,0.25,-0.27,0.97
199,1.08,-1.94,5.25,0.25,-0.27,0.98
200,0.85,-1.65,4.87,0.26,-0.27,0.99
201,0.52,-0.93,4.44,0.27,-0.27,0.98
202,-0.20,-0.37,3.85,0.26,-0.27,0.99
203,-0.56,-0.67,3.54,0.26,-0.27,0.98
204,-0.67,-1.25,2.96,0.25,-0.28,0.99
205,-1.10,-0.35,2.61,0.26,-0.28,0.99
206,-0.64,0.34,2.12,0.26,-0.29,1.01
207,-0.29,0.69,1.71,0.26,-0.29,1.00
208,-0.44,2.03,1.44,0.25,-0.29,0.99
209,-0.37,2.87,1.39,0.24,-0.29,0.99
210,0.08,2.20,1.63,0.22,-0.29,0.98
211,-0.69,3.25,1.76,0.23,-0.29,0.97
212,-1.31,4.00,1.79,0.24,-0.29,0.97
213,-1.63,3.22,1.57,0.23,-0.29,0.97
214,-1.74,1.39,1.53,0.21,-0.29,0.98
215,-2.23,1.69,1.45,0.22,-0.28,0.97
216,-2.98,1.74,1.95,0.22,-0.29,0.98
217,-2.61,1.02,1.98,0.22,-0.29,0.99
218,-2.46,0.32,1.82,0.22,-0.30,1.00
219,-2.67,-0.06,1.68,0.22,-0.29,1.00
220,-2.23,-0.03,1.77,0.23,-0.30,1.01
221,-1.60,-0.46,1.47,0.23,-0.30,1.01
222,-1.65,-0.78,1.18,0.23,-0.29,1.01
223,-1.44,0.09,1.04,0.23,-0.29,1.01
224,-1.07,-0.02,0.75,0.24,-0.30,1.01
225,-0.67,0.09,0.90,0.23,-0.30,1.01
226,-0.66,0.47,1.04,0.23,-0.29,1.02
227,-0.38,1.40,1.08,0.22,-0.29,1.02
228,-0.26,1.16,1.01,0.22,-0.30,1.01
229,-0.14,1.27,0.87,0.22,-0.29,1.00
230,0.12,1.82,0.98,0.22,-0.29,1.00
231,0.06,1.95,1.01,0.22,-0.30,1.00
232,-0.15,1.33,1.01,0.20,-0.29,1.00
233,-0.17,0.66,1.60,0.21,-0.29,0.99
234,0.06,0.15,1.66,0.22,-0.30,1.00
235,-0.02,-0.05,1.60,0.21,-0.30,0.99
236,-0.27,0.43,1.48,0.22,-0.30,0.99
237,-0.12,0.73,1.83,0.22,-0.29,0.99
238,0.11,0.31,1.89,0.22,-0.29,0.99
239,-0.02,-0.63,1.74,0.22,-0.29,0.98
240,-0.20,-1.18,1.53,0.22,-0.29,0.98
241,-0.09,-1.42,1.36,0.23,-0.29,0.98
242,-0.58,-1.11,0.79,0.23,-0.30,0.99
243,-0.12,-1.44,0.87,0.22,-0.29,0.99
244,-0.23,-0.95,1.18,0.22,-0.29,0.99
245,-0.69,-0.52,1.11,0.22,-0.29,0.97
246,-0.96,-1.33,0.84,0.22,-0.29,0.98
247,-0.72,-3.34,0.26,0.23,-0.29,0.99
248,-0.63,-4.75,-0.06,0.22,-0.29,0.98
249,-0.43,-4.95,0.02,0.22,-0.30,1.00
250,-0.35,-4.98,0.35,0.22,-0.29,0.99
251,-0.44,-4.85,0.29,0.22,-0.30,0.99
252,-0.20,-5.74,0.15,0.22,-0.30,1.00
253,-0.17,-6.15,0.49,0.22,-0.29,1.00
254,-0.05,-5.05,0.31,0.23,-0.30,1.00
255,0.37,-3.62,0.32,0.23,-0.30,1.00
256,0.98,-1.92,0.44,0.24,-0.29,1.01
257,0.96,-0.32,0.61,0.23,-0.30,1.00
258,0.66,0.53,0.84,0.23,-0.29,0.98
259,0.38,0.58,1.05,0.24,-0.29,0.99
260,0.09,1.21,0.79,0.24,-0.28,0.99
261,0.02,1.73,0.43,0.25,-0.29,0.99
262,0.05,1.45,0.00,0.23,-0.29,0.98
263,-0.35,0.84,-0.47,0.24,-0.28,0.98
264,-0.27,-0.63,-0.23,0.23,-0.30,0.99
265,-0.31,-2.18,-0.53,0.23,-0.29,1.00
266,-0.17,-2.63,-0.55,0.23,-0.29,0.98
267,-0.14,-2.55,-0.52,0.23,-0.29,1.00
268,0.05,-2.17,-0.47,0.23,-0.29,1.00
269,0.50,-1.59,-0.40,0.24,-0.29,1.01
270,0.38,-0.78,-0.38,0.24,-0.30,1.00
271,0.84,-0.50,-0.72,0.24,-0.30,1.01
272,0.96,-0.79,-0.98,0.24,-0.30,1.00
273,0.81,-0.31,-1.18,0.24,-0.29,0.99
274,0.99,1.22,-1.19,0.24,-0.30,0.99
275,1.30,1.34,-1.07,0.23,-0.30,1.00
276,1.28,0.14,-1.15,0.23,-0.30,1.01
277,1.56,-0.95,-0.64,0.23,-0.30,1.00
278,1.47,-1.60,-0.23,0.23,-0.30,1.01
279,1.66,-2.47,-0.35,0.23,-0.30,1.01
280,2.00,-3.11,-0.23,0.23,-0.30,1.01
281,2.38,-2.43,-0.14,0.23,-0.30,1.02
282,2.46,-2.43,0.17,0.24,-0.30,1.01
283,2.63,-2.56,0.20,0.25,-0.30,1.03
284,3.05,-3.10,0.37,0.23,-0.30,1.02
285,3.66,-2.47,0.69,0.25,-0.30,1.04
286,3.89,-1.94,0.75,0.26,-0.30,1.04
287,4.31,-2.15,0.50,0.27,-0.32,1.04
288,4.63,-1.69,0.05,0.29,-0.32,1.03
289,4.66,-1.19,-0.64,0.29,-0.31,1.03
290,5.01,-0.35,-1.08,0.29,-0.31,1.03
291,4.70,0.93,-1.45,0.29,-0.31,1.02
292,4.78,1.73,-1.79,0.27,-0.30,1.01
293,5.07,1.85,-2.17,0.28,-0.30,1.02
294,5.24,3.30,-2.08,0.27,-0.30,1.01
295,5.11,3.94,-2.09,0.25,-0.29,1.01
296,4.84,4.09,-2.52,0.25,-0.29,1.00
297,4.60,3.22,-2.46,0.25,-0.28,0.98
298,3.85,2.52,-2.95,0.25,-0.28,0.98
299,3.57,2.15,-3.22,0.25,-0.27,0.98
300,3.34,2.05,-3.39,0.24,-0.27,0.99
301,3.34,0.11,-3.77,0.24,-0.28,0.98
302,2.58,-1.33,-3.76,0.25,-0.27,0.98
303,2.06,-2.18,-4.20,0.24,-0.27,0.99
304,1.54,-3.63,-4.85,0.25,-0.27,0.99
305,0.64,-4.66,-5.25,0.25,-0.27,0.99
306,0.61,-5.63,-5.76,0.25,-0.27,1.00
307,0.26,-5.95,-6.06,0.24,-0.27,1.01
308,0.14,-6.11,-6.27,0.25,-0.27,1.02
309,0.49,-7.25,-6.12,0.25,-0.28,1.02
310,0.96,-7.05,-6.24,0.25,-0.28,1.04
311,1.68,-5.71,-6.56,0.25,-0.28,1.04
312,2.60,-3.74,-6.53,0.25,-0.28,1.05
313,3.54,-2.00,-6.49,0.25,-0.29,1.05
314,4.50,-1.21,-6.12,0.23,-0.27,1.04
315,5.01,0.20,-5.71,0.22,-0.28,1.02
316,5.36,1.51,-4.69,0.20,-0.27,1.00
317,5.16,1.74,-3.66,0.19,-0.27,0.97
318,4.92,1.42,-2.72,0.18,-0.26,0.97
319,6.12,-0.89,-2.03,0.19,-0.26,0.96
320,4.55,-2.14,-1.45,0.18,-0.26,0.95
321,4.31,-3.66,-0.75,0.19,-0.25,0.96
322,4.50,-4.81,0.03,0.19,-0.26,0.96
323,4.44,-6.09,0.60,0.19,-0.26,0.97
324,3.94,-6.67,1.21,0.20,-0.26,0.96
325,3.57,-6.75,1.82,0.21,-0.26,0.97
326,3.92,-7.47,2.03,0.21,-0.26,0.98
327,3.88,-8.03,2.31,0.22,-0.27,0.99
328,3.98,-8.23,2.18,0.23,-0.26,0.98
329,4.29,-7.68,2.29,0.23,-0.27,0.99
330,5.22,-8.72,2.37,0.24,-0.26,0.98
331,4.21,-8.50,3.01,0.23,-0.25,0.98
332,-2.34,10.12,3.15,0.27,-0.26,1.01
333,-0.47,3.65,1.88,0.20,-0.28,0.99
334,5.37,-7.65,2.31,0.20,-0.26,0.96
335,7.76,-15.21,2.69,0.18,-0.25,0.93
336,6.08,-20.93,2.66,0.19,-0.24,0.91
337,2.17,-15.82,3.11,0.22,-0.24,0.95
338,2.99,-11.69,3.88,0.23,-0.26,0.97
339,4.44,-7.66,4.47,0.22,-0.26,0.97
340,4.43,-5.79,5.34,0.20,-0.25,0.97
341,3.91,-6.09,6.38,0.19,-0.25,0.98
342,3.98,-5.79,7.47,0.20,-0.26,0.97
343,4.20,-4.73,8.55,0.19,-0.26,0.98
344,6.70,-3.89,9.71,0.20,-0.27,0.99
345,7.18,-4.66,10.09,0.21,-0.26,0.98
346,6.66,-5.95,10.14,0.22,-0.26,0.98
347,5.89,-8.87,10.29,0.22,-0.27,0.97
348,5.53,-8.50,10.32,0.25,-0.27,0.97
349,5.79,-8.56,9.95,0.25,-0.28,0.99
350,5.83,-7.86,9.63,0.25,-0.28,0.98
351,5.62,-7.73,9.56,0.26,-0.27,0.98
352,5.24,-7.73,9.01,0.27,-0.27,0.97
353,4.55,-6.84,8.38,0.29,-0.26,0.97
354,4.15,-4.79,7.83,0.29,-0.27,0.96
355,3.22,-1.92,7.44,0.29,-0.26,0.95
356,2.67,0.23,6.93,0.28,-0.26,0.98
357,1.77,1.42,6.53,0.28,-0.25,0.98
358,0.46,3.97,6.15,0.27,-0.24,0.97
359,-0.61,4.50,5.91,0.27,-0.24,0.97
360,-1.16,4.06,5.44,0.27,-0.25,0.98
361,-1.76,3.37,4.64,0.27,-0.25,0.99
362,-2.12,3.04,4.11,0.26,-0.24,0.99
363,-1.66,2.29,3.88,0.25,-0.26,1.00
364,-2.67,2.15,3.68,0.24,-0.25,1.00
365,-2.37,2.76,3.94,0.24,-0.25,1.00
366,-2.87,3.08,4.21,0.25,-0.26,1.01
367,-2.79,3.04,3.98,0.24,-0.25,1.02
368,-2.79,2.49,3.79,0.24,-0.25,1.03
369,-2.05,1.77,4.12,0.25,-0.26,1.03
370,-1.28,2.52,4.14,0.25,-0.27,1.04
371,-0.96,5.04,3.98,0.27,-0.26,1.03
372,0.09,6.55,4.03,0.27,-0.27,1.03
373,0.98,7.16,3.45,0.28,-0.26,1.02
374,0.70,8.56,2.70,0.28,-0.26,1.02
375,0.73,8.70,2.60,0.27,-0.26,0.98
376,0.46,9.05,2.26,0.27,-0.25,0.98
377,0.21,10.05,1.89,0.26,-0.25,0.99
378,-0.02,10.73,1.44,0.27,-0.25,0.98
379,-0.44,12.15,0.85,0.26,-0.24,0.98
380,-0.49,10.47,0.84,0.25,-0.24,0.98
381,-0.56,9.89,0.67,0.24,-0.24,0.98
382,-1.31,10.64,0.29,0.24,-0.23,0.97
383,-1.57,11.80,0.32,0.23,-0.24,0.97
384,-2.02,12.02,0.85,0.21,-0.24,0.98
385,-2.11,11.11,1.13,0.20,-0.24,0.98
386,-2.53,10.43,1.18,0.19,-0.24,1.00
387,-2.73,9.05,1.36,0.20,-0.25,1.00
388,-3.18,7.22,0.84,0.20,-0.25,1.00
389,-3.25,5.59,0.63,0.20,-0.25,1.02
390,-3.36,3.11,0.40,0.20,-0.26,1.02
391,-3.54,-0.52,-0.35,0.20,-0.26,1.03
392,-2.96,-3.89,-0.61,0.20,-0.26,1.03
393,-2.69,-6.76,-1.02,0.21,-0.27,1.04
394,-2.79,-8.23,-1.31,0.22,-0.27,1.04
395,-2.50,-9.65,-1.16,0.21,-0.26,1.04
396,-2.02,-9.33,-1.08,0.22,-0.27,1.04
397,-1.73,-8.02,-0.90,0.23,-0.27,1.04
398,-1.27,-6.15,-0.52,0.23,-0.26,1.04
399,-0.85,-4.43,-0.26,0.23,-0.26,1.02
400,-0.90,-3.51,-0.12,0.23,-0.26,1.02
401,-0.70,-2.72,0.14,0.23,-0.27,1.02
402,-0.53,-2.49,0.40,0.22,-0.27,1.00
403,-0.53,-2.67,0.44,0.21,-0.26,1.01
404,-0.47,-3.44,0.52,0.20,-0.26,1.00
405,-0.67,-3.92,0.82,0.21,-0.26,0.99
406,-0.44,-6.56,0.69,0.20,-0.26,0.99
407,0.15,-8.38,1.27,0.19,-0.26,0.99
408,-0.75,-9.24,0.98,0.20,-0.26,1.00
409,-0.35,-10.73,0.96,0.20,-0.26,1.00
410,0.21,-12.79,0.95,0.21,-0.26,1.00
411,0.24,-13.22,1.18,0.21,-0.27,1.01
412,1.19,-13.45,1.22,0.23,-0.27,1.00
413,0.32,-15.05,1.10,0.22,-0.25,1.00
414,0.55,-12.75,1.10,0.24,-0.26,0.99
415,1.31,-13.44,1.66,0.22,-0.26,1.00
416,1.04,-13.54,1.69,0.23,-0.26,1.00
417,2.09,-14.08,1.66,0.24,-0.27,0.99
418,1.95,-13.11,2.08,0.24,-0.27,0.99
419,1.82,-9.60,2.12,0.25,-0.27,0.99
420,2.66,-9.11,2.37,0.23,-0.28,0.99
421,2.87,-7.94,2.84,0.24,-0.27,0.98
422,3.08,-7.13,2.96,0.24,-0.27,0.98
423,3.88,-7.07,2.81,0.24,-0.26,0.99
424,5.74,-8.38,3.04,0.23,-0.27,0.96
425,3.22,-5.95,2.95,0.25,-0.26,0.95
426,2.99,-5.88,2.90,0.24,-0.26,0.94
427,2.53,-8.12,3.25,0.23,-0.25,0.94
428,1.69,-9.04,3.34,0.23,-0.25,0.94
429,1.39,-10.56,3.11,0.24,-0.25,0.93
430,1.04,-11.54,3.57,0.24,-0.25,0.95
431,0.58,-11.16,3.62,0.25,-0.25,0.95
432,0.58,-11.68,3.44,0.26,-0.25,0.96
433,0.29,-11.89,3.33,0.26,-0.26,0.95
434,-0.02,-10.70,3.27,0.27,-0.26,0.97
435,0.09,-9.69,3.24,0.27,-0.26,0.96
436,0.11,-9.31,3.37,0.27,-0.26,0.97
437,0.38,-8.34,3.37,0.28,-0.26,0.98
438,0.76,-7.25,3.45,0.29,-0.27,0.99
439,1.05,-6.32,3.22,0.29,-0.26,0.99
440,1.73,-5.54,3.36,0.28,-0.26,0.98
441,1.56,-4.99,3.37,0.28,-0.26,0.99
442,1.59,-4.75,3.50,0.29,-0.26,0.98
443,0.58,-3.62,3.27,0.29,-0.26,0.98
444,1.01,-3.79,3.15,0.29,-0.26,0.99
445,0.69,-4.08,3.04,0.29,-0.26,0.99
446,0.75,-3.21,2.99,0.30,-0.26,0.99
447,0.41,-3.79,2.52,0.29,-0.25,0.99
448,1.36,-3.10,2.49,0.30,-0.26,0.99
449,0.95,-2.35,2.20,0.29,-0.25,0.99
450,0.99,-1.53,2.11,0.29,-0.25,0.99
451,0.15,-1.62,2.21,0.28,-0.25,0.97
452,-0.24,-2.61,2.18,0.27,-0.26,0.98
453,-1.02,-3.39,2.31,0.27,-0.25,0.98
454,-1.33,-2.85,2.20,0.29,-0.26,0.98
455,-1.68,-2.98,2.23,0.29,-0.26,0.99
456,-1.57,-3.92,2.41,0.28,-0.26,1.00
457,-1.69,-7.80,2.84,0.27,-0.26,1.00
458,-2.31,-10.50,3.45,0.26,-0.27,1.01
459,-1.42,-7.15,2.95,0.30,-0.26,1.00
460,-0.84,-1.02,3.02,0.31,-0.27,1.01
461,-0.49,-1.88,2.75,0.30,-0.27,1.03
462,0.03,-3.07,2.56,0.29,-0.27,1.02
463,-0.27,-2.61,2.52,0.29,-0.26,1.00
464,-1.21,-2.93,2.34,0.30,-0.26,1.00
465,-0.95,-3.59,2.38,0.30,-0.26,0.99
466,-0.46,-3.79,2.29,0.29,-0.27,0.99
467,-0.58,-2.64,2.23,0.30,-0.26,0.99
468,-0.49,-2.72,2.32,0.29,-0.27,0.99
469,-0.72,-3.92,2.14,0.28,-0.26,1.00
470,-0.76,-4.60,2.38,0.29,-0.26,0.99
471,-1.05,-3.89,2.44,0.29,-0.26,0.99
472,-1.30,-2.38,2.32,0.30,-0.26,0.98
473,-1.24,-2.26,2.26,0.31,-0.26,0.98
474,-0.72,-3.37,1.94,0.30,-0.26,0.98
475,-1.01,-4.05,1.62,0.31,-0.26,0.98
476,-1.50,-6.34,1.04,0.30,-0.26,0.98
477,-0.60,-5.56,1.02,0.31,-0.26,0.96
478,-1.62,-5.83,0.15,0.30,-0.25,0.97
479,-1.91,-8.02,-0.38,0.31,-0.26,0.97
480,-1.89,-9.53,-1.02,0.31,-0.27,0.98
481,-2.67,-7.86,-1.16,0.31,-0.26,0.99
482,-3.21,-6.75,-1.05,0.31,-0.27,0.98
483,-2.64,-5.86,-0.87,0.31,-0.27,1.00
484,-2.35,-4.89,-0.87,0.31,-0.27,1.00
485,-2.02,-3.65,-0.84,0.32,-0.27,1.00
486,-1.98,-1.30,-0.67,0.31,-0.27,1.00
487,-1.83,0.49,-0.69,0.30,-0.27,0.99
488,-1.85,1.19,-0.61,0.30,-0.27,0.99
489,-2.05,1.04,-0.37,0.29,-0.27,0.98
490,-2.50,-0.31,-0.66,0.30,-0.27,0.98
491,-2.75,-1.36,-0.64,0.29,-0.27,0.98
492,-2.87,-2.64,-0.89,0.29,-0.27,0.97
493,-3.01,-3.40,-1.15,0.29,-0.27,0.96
494,-3.07,-4.43,-1.10,0.29,-0.27,0.98
495,-2.78,-5.63,-1.39,0.30,-0.27,0.97
496,-2.56,-5.24,-1.63,0.30,-0.28,0.97
497,-2.73,-4.56,-1.10,0.30,-0.27,0.98
498,-2.75,-3.76,-1.16,0.30,-0.27,0.97
499,-2.81,-2.82,-1.10,0.29,-0.28,0.97
500,-2.79,-3.04,-0.90,0.29,-0.28,0.97
501,-2.76,-2.98,-0.82,0.29,-0.28,0.95
502,-3.34,-1.79,-0.61,0.30,-0.28,0.96
503,-3.71,-3.25,-0.50,0.28,-0.27,0.94
504,-3.68,-3.59,-0.49,0.29,-0.28,0.95
505,-3.44,-4.44,-0.49,0.28,-0.28,0.95
506,-3.39,-3.86,-0.11,0.30,-0.28,0.96
507,-3.25,-2.90,-0.37,0.30,-0.27,0.95
508,-3.42,-1.68,0.06,0.30,-0.27,0.95
509,-3.04,-1.28,0.31,0.30,-0.28,0.96
510,-3.10,-0.18,0.26,0.30,-0.27,0.95
511,-2.87,1.25,0.43,0.30,-0.27,0.95
512,-4.31,3.47,0.75,0.30,-0.27,0.94
513,-4.90,3.30,0.79,0.29,-0.27,0.94
514,-5.21,1.59,0.85,0.29,-0.26,0.93
515,-5.57,0.24,1.05,0.29,-0.26,0.93
516,-5.86,-1.53,0.98,0.29,-0.27,0.95
517,-6.29,-2.72,1.37,0.28,-0.27,0.92
518,-6.49,-2.67,1.47,0.28,-0.27,0.94
519,-6.64,-2.98,1.71,0.29,-0.27,0.93
520,-7.95,-2.17,1.45,0.29,-0.27,0.93
521,-9.34,-2.35,2.40,0.28,-0.28,0.94
522,-10.60,-2.00,2.84,0.27,-0.27,0.92
523,-11.25,-1.19,4.40,0.27,-0.27,0.90
524,-12.66,-1.18,4.70,0.26,-0.27,0.89
525,-15.30,-1.44,4.84,0.25,-0.28,0.88
526,-17.10,-3.63,6.27,0.24,-0.27,0.85
527,-21.21,-2.64,8.66,0.22,-0.25,0.85
528,-23.71,-5.53,9.66,0.19,-0.27,0.85
529,-25.51,-8.24,13.28,0.19,-0.25,0.84
530,-28.78,-8.26,15.37,0.19,-0.27,0.82
531,-33.44,-2.17,14.72,0.18,-0.26,0.75
532,-35.04,-13.74,20.87,0.11,-0.27,0.88
533,-45.21,-14.87,22.60,0.17,-0.28,0.72
534,-48.56,-18.72,27.94,0.10,-0.30,0.74
535,-52.50,-27.10,32.81,0.14,-0.30,0.73
536,-52.24,-30.79,37.37,0.18,-0.33,0.75
537,-53.07,-39.33,37.83,0.21,-0.33,0.79
538,-50.15,-49.08,38.18,0.19,-0.35,0.77
539,-50.60,-51.79,39.65,0.22,-0.37,0.79
540,-52.08,-61.59,39.21,0.22,-0.36,0.78
541,-52.95,-59.45,40.61,0.25,-0.39,0.74
542,-55.79,-64.60,41.45,0.24,-0.37,0.73
543,-56.56,-67.66,44.11,0.24,-0.37,0.73
544,-60.44,-68.92,47.19,0.23,-0.38,0.67
545,-64.20,-68.79,51.51,0.22,-0.38,0.65
546,-66.85,-68.43,55.94,0.23,-0.40,0.66
547,-67.53,-64.49,59.37,0.26,-0.40,0.65
548,-67.44,-57.21,62.64,0.29,-0.41,0.63
549,-68.63,-50.87,65.48,0.30,-0.41,0.58
550,-72.67,-45.40,67.69,0.29,-0.43,0.53
551,-78.35,-37.47,71.33,0.28,-0.44,0.49
552,-80.05,-34.61,74.46,0.28,-0.45,0.46
553,-81.01,-33.47,76.89,0.28,-0.46,0.44
554,-82.93,-32.03,78.69,0.29,-0.46,0.39
555,-86.43,-35.85,79.97,0.28,-0.47,0.33
556,-91.36,-40.37,80.29,0.29,-0.48,0.30
557,-94.81,-47.34,79.85,0.31,-0.49,0.25
558,-96.76,-56.69,76.40,0.33,-0.51,0.24
559,-101.39,-59.28,71.92,0.37,-0.54,0.24
560,-103.94,-66.38,67.98,0.36,-0.58,0.26
561,-107.83,-72.38,63.45,0.35,-0.62,0.28
562,-113.59,-79.83,60.02,0.32,-0.64,0.27
563,-116.32,-90.21,59.65,0.30,-0.67,0.30
564,-119.91,-103.97,59.57,0.31,-0.71,0.32
565,-122.92,-107.40,60.32,0.31,-0.76,0.33
566,-123.54,-118.49,62.78,0.32,-0.79,0.40
567,-125.73,-113.83,67.18,0.35,-0.82,0.43
568,-125.74,-110.67,70.63,0.38,-0.86,0.47
569,-125.22,-102.89,75.48,0.43,-0.89,0.51
570,-123.56,-90.34,78.67,0.44,-0.92,0.53
571,-121.74,-76.61,82.92,0.47,-0.93,0.55
572,-119.63,-59.85,83.85,0.52,-0.95,0.57
573,-118.02,-45.74,84.26,0.53,-0.97,0.55
574,-119.37,-34.44,83.36,0.51,-0.97,0.49
575,-122.18,-19.15,82.21,0.51,-0.97,0.45
576,-123.80,-13.71,81.13,0.49,-0.97,0.42
577,-124.08,-13.80,78.32,0.47,-0.97,0.40
578,-124.60,-9.94,74.41,0.44,-0.97,0.35
579,-124.41,-9.83,69.02,0.38,-0.96,0.28
580,-124.89,-14.87,65.48,0.31,-0.96,0.20
581,-131.74,-14.17,64.58,0.24,-0.97,0.07
582,-140.41,-23.92,65.47,0.14,-0.98,0.06
583,-147.80,-30.55,69.63,0.09,-1.02,0.05
584,-154.93,-35.30,75.59,0.08,-1.05,0.08
585,-157.88,-36.43,80.02,0.10,-1.09,0.15
586,-159.71,-45.19,85.34,0.07,-1.17,0.17
587,-163.16,-55.18,89.27,0.04,-1.24,0.20
588,-168.61,-52.95,93.82,0.19,-1.20,0.09
589,-167.51,-66.09,96.72,0.17,-1.25,0.19
590,-166.58,-65.33,96.44,0.27,-1.27,0.15
591,-170.08,-59.88,94.20,0.23,-1.31,0.20
592,-170.89,-56.06,92.18,0.25,-1.29,0.15
593,-177.73,-48.20,90.32,0.22,-1.29,0.03
594,-188.14,-41.33,93.18,0.19,-1.29,0.03
595,-197.25,-39.79,94.60,0.20,-1.33,-0.01
596,-202.85,-39.45,95.74,0.25,-1.32,0.02
597,-204.41,-38.26,93.27,0.30,-1.39,0.09
598,-202.66,-35.21,89.33,0.34,-1.37,0.14
599,-199.83,-28.03,85.63,0.33,-1.41,0.14
600,-198.61,-15.82,83.34,0.30,-1.43,0.16
601,-194.11,-10.56,84.32,0.25,-1.41,0.17
602,-185.98,-10.75,85.94,0.21,-1.40,0.20
603,-182.32,-6.08,88.00,0.14,-1.39,0.19
604,-177.11,-7.62,91.73,0.04,-1.40,0.17
605,-174.78,-11.42,93.80,0.03,-1.37,0.13
606,-173.15,-22.84,94.78,0.03,-1.33,0.05
607,-171.74,-33.42,94.82,0.02,-1.33,0.01
608,-174.44,-37.97,95.98,0.05,-1.31,-0.06
609,-177.97,-47.33,96.70,0.07,-1.34,-0.07
610,-182.29,-55.82,99.68,0.10,-1.34,-0.05
611,-179.85,-59.25,103.82,0.13,-1.32,-0.05
612,-179.13,-56.31,106.70,0.21,-1.34,-0.01
613,-178.26,-46.26,106.55,0.26,-1.38,0.02
614,-176.15,-37.21,102.09,0.29,-1.37,0.06
615,-175.53,-24.12,93.21,0.35,-1.38,0.05
616,-177.27,-12.06,80.50,0.33,-1.39,0.04
617,-178.20,-1.10,66.27,0.32,-1.40,0.10
618,-171.95,-4.58,52.08,0.30,-1.41,0.10
619,-167.39,12.66,38.76,0.30,-1.41,0.14
620,-162.89,5.01,30.02,0.21,-1.45,0.16
621,-152.95,2.63,21.13,0.19,-1.43,0.08
622,-144.96,6.40,14.52,0.18,-1.42,0.04
623,-141.82,17.21,11.18,0.17,-1.41,0.03
624,-137.54,24.67,11.24,0.10,-1.40,0.06
625,-128.52,17.04,13.37,0.04,-1.38,0.09
626,-118.24,6.43,15.01,0.02,-1.37,0.11
627,-108.38,1.79,16.99,-0.01,-1.36,0.08
628,-100.79,0.78,18.21,-0.01,-1.31,0.04
629,-92.89,-5.47,16.99,-0.04,-1.28,-0.02
630,-83.73,-20.92,15.04,-0.07,-1.23,-0.13
631,-83.42,-37.60,12.50,-0.04,-1.22,-0.22
632,-85.40,-51.07,7.89,0.05,-1.15,-0.34
633,-88.55,-54.37,2.72,0.12,-1.11,-0.44
634,-97.86,-50.78,-0.08,0.13,-1.11,-0.49
635,-105.69,-47.44,1.66,0.10,-1.13,-0.49
636,-112.90,-46.61,3.57,0.13,-1.11,-0.49
637,-118.03,-41.21,6.21,0.14,-1.10,-0.45
638,-122.43,-29.37,8.85,0.24,-1.06,-0.37
639,-128.63,-4.60,10.43,0.18,-1.07,-0.27
640,-112.82,10.00,14.56,0.14,-1.04,-0.20
641,-95.89,7.33,19.34,0.08,-1.01,-0.11
642,-69.79,-1.82,19.31,0.08,-0.94,-0.12
643,-45.08,-13.18,17.02,0.10,-0.94,-0.18
644,-30.06,-25.13,12.63,0.16,-0.91,-0.26
645,-18.89,-30.64,6.99,0.22,-0.86,-0.36
646,-11.54,-25.22,0.96,0.27,-0.84,-0.51
647,-10.58,-17.80,-5.01,0.29,-0.81,-0.61
648,-13.80,-11.34,-12.92,0.29,-0.81,-0.65
649,-16.29,-4.69,-21.53,0.28,-0.80,-0.65
650,-18.15,3.98,-28.12,0.21,-0.78,-0.62
651,-18.17,6.96,-31.56,0.13,-0.76,-0.57
652,-18.53,7.76,-33.02,0.00,-0.76,-0.50
653,-13.36,0.18,-30.34,-0.09,-0.73,-0.44
654,-10.02,-6.67,-24.06,-0.14,-0.72,-0.39
655,-10.76,-2.63,-14.05,-0.19,-0.75,-0.33
656,-6.17,8.00,-5.34,-0.23,-0.73,-0.33
657,-4.49,16.29,2.00,-0.27,-0.81,-0.39
658,1.31,19.83,7.31,-0.23,-0.77,-0.43
659,-1.37,24.21,8.35,-0.13,-0.76,-0.53
660,-6.98,18.02,6.09,-0.10,-0.78,-0.57
661,-10.70,10.64,0.53,-0.05,-0.77,-0.62
662,-14.90,0.40,-4.85,-0.05,-0.74,-0.66
663,-25.45,0.29,-8.37,0.00,-0.73,-0.70
664,-21.44,0.15,-13.42,-0.04,-0.75,-0.60
665,-29.80,18.24,-16.92,-0.03,-0.77,-0.54
666,-36.73,21.05,-16.79,-0.07,-0.75,-0.48
667,-40.98,11.30,-11.50,-0.14,-0.74,-0.46
668,-39.66,4.35,-4.92,-0.15,-0.78,-0.43
669,-34.24,15.57,1.54,-0.06,-0.81,-0.36
670,-33.86,35.16,8.02,-0.04,-0.79,-0.33
671,-27.40,38.79,13.16,-0.06,-0.79,-0.32
672,-17.01,21.02,18.00,-0.07,-0.80,-0.40
673,-12.58,20.81,20.66,-0.01,-0.80,-0.48
674,-14.69,31.47,18.14,0.04,-0.79,-0.50
675,-9.91,26.24,12.11,0.08,-0.77,-0.51
676,-4.06,19.56,3.73,0.08,-0.77,-0.53
677,-1.36,20.90,-3.54,0.09,-0.75,-0.55
