,gyro_x,gyro_y,gyro_z,acce_x,acce_y,acce_z
0,3.66,3.36,4.99,0.13,-0.23,0.96
1,2.92,4.15,5.15,0.13,-0.23,0.97
2,2.92,5.04,5.54,0.13,-0.23,0.96
3,3.04,7.77,6.17,0.12,-0.23,0.94
4,2.60,9.27,6.75,0.11,-0.22,0.95
5,1.68,10.21,7.24,0.11,-0.22,0.94
6,1.22,9.27,7.37,0.10,-0.22,0.92
7,0.03,8.72,7.85,0.09,-0.22,0.92
8,-1.59,8.41,7.86,0.09,-0.22,0.91
9,-2.58,6.34,8.21,0.08,-0.22,0.92
10,-4.00,3.47,8.81,0.07,-0.21,0.93
11,-4.95,1.50,9.68,0.08,-0.21,0.95
12,-5.59,0.76,10.34,0.09,-0.22,0.96
13,-6.08,0.73,11.39,0.11,-0.22,0.97
14,-6.27,1.51,12.26,0.13,-0.23,1.00
15,-6.32,1.88,13.25,0.14,-0.23,1.01
16,-7.19,3.50,13.79,0.17,-0.23,1.04
17,-6.53,4.69,14.27,0.18,-0.23,1.04
18,-3.18,0.55,14.09,0.18,-0.23,1.09
19,-3.94,-0.93,13.53,0.20,-0.22,1.09
20,-5.68,6.09,13.39,0.23,-0.22,1.06
21,-5.54,8.85,12.40,0.24,-0.21,1.08
22,-3.88,6.95,11.51,0.23,-0.22,1.11
23,-2.20,1.97,10.46,0.22,-0.21,1.10
24,-1.85,-0.90,8.03,0.21,-0.22,1.10
25,-1.85,0.56,9.04,0.24,-0.22,1.11
26,-1.88,1.13,8.31,0.26,-0.20,1.11
27,-1.80,1.77,7.07,0.27,-0.21,1.12
28,-1.19,3.28,6.49,0.28,-0.20,1.11
29,-0.14,4.02,5.91,0.28,-0.20,1.11
30,0.02,5.31,4.95,0.28,-0.20,1.11
31,0.63,5.69,3.98,0.28,-0.20,1.11
32,1.54,7.33,2.37,0.29,-0.19,1.09
33,1.50,10.23,0.96,0.29,-0.19,1.07
34,0.72,11.50,-1.04,0.27,-0.19,1.07
35,1.15,10.27,-2.53,0.26,-0.18,1.05
36,2.14,9.63,-3.88,0.23,-0.19,1.03
37,0.32,10.24,-4.72,0.22,-0.18,1.02
38,0.43,8.26,-5.10,0.19,-0.18,1.03
39,0.38,5.83,-5.66,0.16,-0.18,1.01
40,1.10,4.38,-5.45,0.16,-0.19,1.02
41,0.60,4.81,-5.28,0.15,-0.19,1.02
42,0.43,5.25,-4.79,0.15,-0.20,1.02
43,-0.17,5.74,-4.44,0.14,-0.20,1.02
44,-0.55,6.02,-4.12,0.13,-0.20,1.03
45,0.21,5.97,-3.56,0.13,-0.21,1.05
46,1.15,7.07,-3.66,0.13,-0.22,1.04
47,2.02,7.50,-2.93,0.11,-0.21,1.03
48,2.37,7.57,-2.52,0.10,-0.22,1.04
49,2.56,6.70,-2.00,0.09,-0.22,1.03
50,2.81,4.69,-1.69,0.08,-0.22,1.03
51,3.69,1.66,-1.54,0.08,-0.21,1.02
52,4.78,-0.24,-1.28,0.08,-0.22,1.02
53,5.02,-0.20,-0.75,0.09,-0.21,1.02
54,5.51,-1.48,-0.21,0.09,-0.21,1.01
55,5.36,-3.60,-0.08,0.09,-0.21,1.00
56,5.44,-5.21,0.00,0.10,-0.20,0.98
57,5.04,-5.02,-0.08,0.10,-0.20,0.97
58,4.31,-5.39,0.05,0.10,-0.19,0.96
59,3.24,-5.86,-0.08,0.11,-0.19,0.96
60,2.58,-7.69,-0.26,0.11,-0.19,0.95
61,1.77,-9.60,-0.52,0.12,-0.19,0.97
62,1.30,-10.78,-0.63,0.12,-0.19,0.97
63,-0.06,-11.01,-0.46,0.12,-0.19,0.98
64,0.52,-11.50,-0.50,0.13,-0.19,0.99
65,0.95,-11.13,-0.32,0.13,-0.20,0.99
66,0.50,-11.10,-0.37,0.12,-0.20,1.00
67,1.94,-11.30,-0.15,0.12,-0.20,1.00
68,1.51,-11.15,-0.06,0.11,-0.20,1.01
69,1.47,-12.44,0.32,0.12,-0.20,1.03
70,1.98,-11.95,0.64,0.13,-0.19,1.02
71,1.94,-11.50,0.99,0.12,-0.20,1.02
72,1.71,-10.37,1.45,0.13,-0.19,1.02
73,2.43,-10.47,2.09,0.12,-0.19,1.01
74,2.31,-10.23,2.00,0.13,-0.18,1.01
75,2.00,-9.82,1.56,0.14,-0.19,1.00
76,1.73,-10.76,1.74,0.15,-0.19,1.00
77,1.51,-11.91,1.45,0.15,-0.19,1.00
78,1.08,-11.34,1.57,0.15,-0.19,0.99
79,0.50,-10.03,1.92,0.16,-0.19,0.99
80,0.41,-9.27,2.17,0.15,-0.19,0.99
81,-0.21,-8.85,2.63,0.15,-0.18,0.99
82,-0.52,-8.53,2.76,0.16,-0.18,0.99
83,-0.37,-8.53,2.85,0.17,-0.19,1.00
84,-0.55,-6.67,2.85,0.17,-0.18,0.99
85,-0.67,-4.11,3.01,0.18,-0.19,1.00
86,-0.82,-2.63,2.63,0.18,-0.19,1.01
87,-1.21,-2.37,2.37,0.18,-0.19,1.01
88,-1.25,-3.05,1.59,0.18,-0.20,1.01
89,-0.81,-3.80,1.04,0.19,-0.20,1.01
90,-1.53,-2.96,0.43,0.18,-0.20,1.01
91,-1.47,-3.60,0.29,0.16,-0.20,1.00
92,-0.82,-3.13,0.31,0.16,-0.20,1.01
93,-0.72,-2.21,0.63,0.16,-0.20,1.01
94,-1.15,-0.11,0.58,0.16,-0.21,1.00
95,-1.16,1.53,0.70,0.16,-0.21,1.00
96,-1.13,2.08,0.61,0.17,-0.22,1.00
97,-0.96,2.60,1.02,0.16,-0.21,1.01
98,-0.93,2.85,1.11,0.16,-0.22,1.01
99,-1.07,3.60,1.24,0.16,-0.22,1.00
100,-1.13,4.21,1.39,0.15,-0.22,0.99
101,-1.68,4.00,1.66,0.15,-0.22,1.01
102,-2.52,4.24,1.60,0.13,-0.22,1.00
103,-2.87,3.53,1.76,0.13,-0.22,1.00
104,-2.92,2.58,2.09,0.13,-0.22,1.00
105,-2.89,1.31,2.56,0.13,-0.22,1.01
106,-3.36,0.32,2.76,0.12,-0.23,1.00
107,-3.91,-0.06,3.07,0.13,-0.22,1.00
108,-4.24,0.53,3.62,0.14,-0.22,1.00
109,-4.23,1.10,4.11,0.15,-0.23,1.01
110,-4.41,2.21,4.50,0.15,-0.23,1.02
111,-4.58,2.53,5.08,0.15,-0.23,1.02
112,-4.69,4.34,5.13,0.17,-0.24,1.02
113,-5.15,5.36,5.22,0.18,-0.24,1.02
114,-5.07,7.39,4.99,0.18,-0.23,1.03
115,-4.69,8.34,4.99,0.18,-0.23,1.04
116,-4.98,8.06,5.15,0.18,-0.24,1.04
117,-4.87,8.90,4.73,0.18,-0.23,1.04
118,-4.35,8.32,4.37,0.18,-0.24,1.05
119,-3.73,7.44,3.92,0.18,-0.24,1.05
120,-3.66,5.98,3.56,0.17,-0.23,1.05
121,-2.81,5.37,3.04,0.17,-0.24,1.07
122,-1.98,5.86,2.84,0.17,-0.24,1.05
123,-1.31,5.80,2.72,0.17,-0.24,1.04
124,-1.30,6.63,2.70,0.17,-0.24,1.05
125,-1.28,6.15,2.50,0.17,-0.25,1.05
126,-1.80,5.73,2.61,0.17,-0.24,1.04
127,-2.26,5.10,2.67,0.17,-0.23,1.06
128,-2.38,5.34,2.38,0.17,-0.24,1.04
129,-2.29,4.90,2.31,0.16,-0.25,1.04
130,-2.14,4.76,2.29,0.15,-0.24,1.05
131,-1.65,5.24,2.27,0.15,-0.24,1.04
132,-1.19,5.01,2.55,0.15,-0.24,1.06
133,-1.31,4.35,2.38,0.14,-0.24,1.05
134,-1.08,4.40,2.85,0.15,-0.24,1.04
135,-0.43,5.51,2.98,0.16,-0.25,1.04
136,-0.06,4.93,2.96,0.14,-0.24,1.03
137,0.35,3.11,3.05,0.15,-0.25,1.04
138,0.38,3.11,2.99,0.16,-0.24,1.04
139,0.14,2.58,2.89,0.16,-0.23,1.02
140,0.21,2.93,2.64,0.16,-0.23,1.03
141,0.35,1.89,2.82,0.17,-0.24,1.03
142,-0.18,2.05,2.55,0.16,-0.23,1.04
143,-0.17,2.70,2.50,0.17,-0.24,1.04
144,0.64,2.96,2.46,0.17,-0.24,1.05
145,0.66,4.46,2.55,0.17,-0.23,1.05
146,0.99,5.25,2.81,0.16,-0.24,1.05
147,1.74,5.11,2.92,0.16,-0.23,1.05
148,1.51,4.55,3.15,0.16,-0.22,1.05
149,1.98,4.32,3.19,0.16,-0.23,1.05
150,2.03,4.38,2.99,0.15,-0.23,1.04
151,2.08,4.17,2.92,0.17,-0.22,1.04
152,2.38,2.41,2.47,0.16,-0.23,1.05
153,2.40,1.45,2.46,0.16,-0.23,1.04
154,2.61,1.39,2.35,0.17,-0.22,1.04
155,2.61,2.05,1.77,0.17,-0.23,1.04
156,3.04,4.17,1.60,0.18,-0.23,1.04
157,2.60,5.88,1.47,0.17,-0.23,1.06
158,3.10,6.32,1.19,0.16,-0.23,1.05
159,3.33,7.25,0.60,0.16,-0.23,1.05
160,3.54,6.29,0.24,0.16,-0.23,1.05
161,4.14,4.29,-0.37,0.13,-0.23,1.05
162,4.40,2.70,-0.73,0.12,-0.22,1.05
163,4.66,2.56,-0.38,0.11,-0.23,1.03
164,5.19,2.03,0.11,0.09,-0.22,1.04
165,5.39,0.31,0.56,0.09,-0.22,1.03
166,5.69,-1.30,0.98,0.09,-0.22,1.02
167,5.69,-1.92,1.51,0.10,-0.22,1.01
168,6.06,-2.73,1.45,0.11,-0.22,1.00
169,6.26,-3.39,1.56,0.12,-0.22,1.00
170,5.65,-3.50,1.47,0.14,-0.21,1.00
171,5.10,-3.60,0.85,0.15,-0.21,0.98
172,4.44,-3.76,0.32,0.15,-0.20,0.98
173,4.03,-3.51,-0.06,0.16,-0.20,0.98
174,3.24,-3.59,-0.72,0.15,-0.20,0.98
175,2.46,-3.89,-1.16,0.15,-0.22,0.99
176,2.09,-4.47,-1.53,0.14,-0.21,0.99
177,1.53,-5.05,-1.86,0.13,-0.21,1.00
178,1.37,-5.13,-1.95,0.12,-0.21,1.00
179,1.36,-4.46,-1.47,0.12,-0.22,1.01
180,1.08,-3.98,-1.01,0.11,-0.21,1.03
181,1.47,-3.82,-0.50,0.11,-0.22,1.02
182,1.60,-3.66,-0.23,0.11,-0.22,1.02
183,1.33,-3.39,0.46,0.12,-0.22,1.02
184,1.69,-3.39,0.63,0.11,-0.22,1.02
185,1.50,-3.33,1.21,0.11,-0.21,1.03
186,1.16,-2.24,1.36,0.12,-0.21,1.03
187,1.36,-0.93,1.54,0.13,-0.21,1.03
188,1.50,0.53,1.51,0.14,-0.21,1.03
189,2.20,1.01,1.42,0.14,-0.22,1.03
190,2.56,0.40,1.10,0.15,-0.21,1.04
191,2.61,-0.02,0.75,0.14,-0.21,1.04
192,2.73,0.35,0.49,0.14,-0.21,1.02
193,3.05,0.90,0.58,0.14,-0.21,1.02
194,2.58,1.45,0.63,0.14,-0.20,1.01
195,2.53,1.40,0.44,0.13,-0.21,1.01
196,2.37,1.59,0.43,0.13,-0.20,1.02
197,2.38,1.28,0.32,0.12,-0.21,1.02
198,2.27,0.84,0.20,0.12,-0.20,1.00
199,1.82,0.43,0.66,0.11,-0.19,1.02
200,2.09,0.50,0.99,0.11,-0.21,1.02
201,2.00,0.55,1.47,0.12,-0.20,1.00
202,2.02,0.81,1.74,0.13,-0.20,1.02
203,2.34,2.44,2.09,0.14,-0.21,1.01
204,2.05,4.18,2.37,0.15,-0.20,1.01
205,2.09,5.45,2.31,0.13,-0.20,1.01
206,1.56,6.58,2.20,0.14,-0.20,1.01
207,1.10,6.37,1.94,0.14,-0.20,1.00
208,0.75,7.10,1.68,0.14,-0.20,0.99
209,0.00,6.12,1.36,0.13,-0.20,0.99
210,-1.18,4.82,1.22,0.14,-0.19,1.00
211,-1.22,3.69,0.95,0.13,-0.21,1.00
212,-1.62,3.48,0.67,0.14,-0.20,1.00
213,-1.85,4.52,0.32,0.13,-0.20,1.02
214,-1.56,3.63,0.11,0.13,-0.21,1.02
215,-1.79,2.53,0.11,0.12,-0.20,1.02
216,-1.74,2.03,0.53,0.11,-0.21,1.03
217,-1.65,2.17,0.69,0.11,-0.21,1.02
218,-1.63,2.60,1.31,0.10,-0.21,1.03
219,-1.27,2.15,1.53,0.11,-0.21,1.05
220,-0.95,2.55,1.66,0.11,-0.22,1.03
221,-0.61,2.56,1.85,0.11,-0.21,1.04
222,-0.14,1.54,2.05,0.11,-0.21,1.05
223,-0.27,1.31,2.08,0.11,-0.20,1.03
224,0.02,1.37,1.86,0.12,-0.20,1.02
225,-0.15,2.26,1.95,0.13,-0.21,1.02
226,-0.27,1.59,1.80,0.12,-0.21,1.02
227,-0.50,0.55,2.02,0.12,-0.20,1.02
228,-0.49,-0.24,1.80,0.13,-0.21,1.01
229,-0.69,0.38,1.47,0.14,-0.20,1.01
230,-0.27,0.64,1.39,0.13,-0.20,1.01
231,-0.06,0.85,1.51,0.13,-0.21,1.01
232,-0.18,1.08,1.22,0.14,-0.20,1.01
233,0.17,0.75,1.21,0.14,-0.20,1.02
234,-0.17,0.67,1.22,0.14,-0.20,1.01
235,-0.93,0.12,1.11,0.13,-0.20,1.01
236,-0.93,-0.17,1.39,0.12,-0.20,1.01
237,-1.27,-0.47,1.56,0.12,-0.21,1.01
238,-1.53,-0.75,1.51,0.13,-0.20,1.03
239,-1.48,0.05,1.33,0.12,-0.21,1.02
240,-1.19,-0.21,0.99,0.14,-0.21,1.03
241,-0.35,-0.72,0.66,0.13,-0.21,1.04
242,-0.03,-1.66,0.40,0.12,-0.22,1.02
243,-0.47,-2.52,0.60,0.12,-0.20,1.03
244,-0.12,-3.02,0.24,0.13,-0.21,1.02
245,-0.15,-4.02,0.44,0.12,-0.21,1.03
246,-0.15,-3.86,0.58,0.12,-0.21,1.02
247,0.06,-3.62,0.85,0.12,-0.21,1.02
248,-0.06,-4.78,1.10,0.11,-0.21,1.03
249,-0.23,-5.11,1.50,0.12,-0.21,1.03
250,-0.17,-4.05,1.83,0.13,-0.22,1.03
251,-0.95,-2.90,2.12,0.13,-0.21,1.03
252,-1.02,-2.96,2.15,0.13,-0.21,1.03
253,-0.75,-3.59,2.31,0.13,-0.22,1.04
254,-0.61,-3.98,2.05,0.14,-0.22,1.04
255,-0.15,-3.83,1.85,0.13,-0.22,1.04
256,0.23,-4.31,1.66,0.14,-0.22,1.05
257,0.55,-4.12,1.51,0.14,-0.22,1.04
258,1.04,-3.80,1.59,0.14,-0.22,1.04
259,1.24,-2.23,1.56,0.15,-0.22,1.04
260,1.16,-2.58,1.80,0.14,-0.22,1.03
261,1.11,-2.82,1.66,0.14,-0.22,1.03
262,0.64,-3.22,1.59,0.15,-0.21,1.03
263,0.55,-3.56,1.53,0.15,-0.22,1.02
264,0.40,-1.56,1.31,0.15,-0.21,1.02
265,0.61,-0.26,1.24,0.16,-0.21,1.03
266,0.69,0.32,1.02,0.15,-0.22,1.02
267,0.17,0.58,0.96,0.15,-0.22,1.03
268,-0.11,0.44,1.15,0.15,-0.22,1.01
269,-0.44,-0.53,0.78,0.15,-0.21,1.02
270,-0.40,-1.11,0.82,0.14,-0.22,1.03
271,-0.15,-1.60,0.52,0.14,-0.22,1.03
272,-0.03,-1.86,0.76,0.13,-0.22,1.03
273,0.18,-0.64,1.02,0.13,-0.21,1.04
274,0.11,-0.08,1.33,0.13,-0.21,1.03
275,-0.06,0.03,1.33,0.13,-0.22,1.04
276,0.14,0.60,1.59,0.13,-0.22,1.03
277,-0.12,0.27,1.92,0.14,-0.22,1.02
278,0.14,-0.21,1.94,0.12,-0.22,1.03
279,0.60,-0.85,1.98,0.13,-0.22,1.02
280,0.58,-0.43,2.03,0.13,-0.21,1.02
281,0.38,-1.21,1.92,0.14,-0.21,1.02
282,0.37,-1.05,1.95,0.14,-0.22,1.02
283,0.26,-1.34,1.73,0.15,-0.21,1.01
284,-0.52,-0.40,1.80,0.16,-0.22,1.00
285,-0.95,0.35,1.79,0.16,-0.21,1.02
286,-1.21,0.32,1.73,0.16,-0.21,1.03
287,-1.22,0.47,1.56,0.16,-0.22,1.02
288,-1.42,1.57,1.16,0.17,-0.22,1.03
289,-1.22,2.05,1.21,0.15,-0.21,1.04
290,-0.84,2.70,0.85,0.15,-0.22,1.03
291,-0.56,3.16,0.66,0.15,-0.21,1.05
292,-0.41,2.73,0.44,0.14,-0.21,1.04
293,-0.15,1.82,0.26,0.13,-0.21,1.04
294,0.35,0.96,0.46,0.12,-0.21,1.03
295,0.46,0.61,0.56,0.12,-0.22,1.03
296,0.05,0.37,1.05,0.13,-0.21,1.03
297,0.08,1.07,1.16,0.13,-0.22,1.03
298,0.49,2.08,1.53,0.14,-0.22,1.03
299,-0.06,2.37,1.62,0.15,-0.21,1.02
300,0.02,2.37,1.59,0.15,-0.22,1.03
301,0.02,1.83,1.45,0.15,-0.22,1.03
302,0.44,2.43,1.45,0.15,-0.21,1.03
303,0.35,2.81,1.31,0.15,-0.22,1.04
304,0.69,4.03,0.73,0.16,-0.21,1.03
305,1.39,4.99,0.63,0.15,-0.22,1.02
306,1.25,3.95,0.31,0.13,-0.21,1.02
307,1.08,2.58,0.26,0.14,-0.21,1.01
308,0.49,1.13,0.21,0.13,-0.21,1.00
309,-0.18,-0.09,0.35,0.13,-0.21,1.00
310,-0.31,-1.85,-0.11,0.14,-0.21,1.00
311,-0.18,-2.20,-0.24,0.15,-0.21,1.01
312,-0.27,-2.05,-0.40,0.14,-0.20,1.01
313,-0.21,-1.05,0.00,0.15,-0.21,1.01
314,-0.53,0.20,-0.08,0.14,-0.21,1.02
315,-0.53,0.87,0.24,0.15,-0.21,1.01
316,-0.89,1.60,0.35,0.15,-0.21,1.02
317,-0.98,1.33,0.23,0.14,-0.21,1.03
318,-1.10,1.15,-0.02,0.14,-0.21,1.03
319,-0.76,1.31,0.14,0.14,-0.22,1.02
320,-0.55,-0.06,-0.73,0.14,-0.22,1.03
321,0.41,-2.49,-1.36,0.14,-0.23,1.04
322,0.63,-3.77,-1.69,0.13,-0.23,1.03
323,0.73,-3.57,-1.83,0.14,-0.22,1.04
324,1.08,-3.11,-1.19,0.13,-0.23,1.04
325,1.51,-1.65,-0.81,0.13,-0.22,1.04
326,1.02,-1.02,-0.21,0.12,-0.21,1.03
327,1.04,-0.20,0.32,0.12,-0.21,1.03
328,1.21,-1.07,0.64,0.11,-0.21,1.03
329,0.81,-1.07,0.60,0.12,-0.21,1.01
330,0.66,-1.04,0.55,0.13,-0.21,1.03
331,0.84,-2.31,0.32,0.13,-0.21,1.02
332,0.89,-3.65,0.09,0.13,-0.21,1.02
333,1.13,-5.45,-0.08,0.14,-0.21,1.01
334,1.65,-4.53,-0.31,0.16,-0.22,1.03
335,2.26,-4.20,-0.32,0.16,-0.22,1.02
336,2.34,-2.98,-0.60,0.15,-0.21,1.02
337,2.47,-2.75,-0.92,0.16,-0.22,1.00
338,1.53,-2.14,-0.87,0.15,-0.21,1.00
339,0.89,-1.54,-0.60,0.14,-0.21,1.00
340,0.00,-1.74,-0.60,0.14,-0.21,1.00
341,-0.03,-2.14,-0.15,0.13,-0.21,1.01
342,-0.12,-3.19,-0.24,0.13,-0.21,1.02
343,-0.69,-3.83,-0.34,0.13,-0.21,1.04
344,-0.37,-3.92,-0.47,0.15,-0.22,1.04
345,0.27,-2.67,-0.47,0.15,-0.23,1.04
346,0.61,-1.69,-0.47,0.14,-0.22,1.04
347,0.99,-1.76,-0.24,0.14,-0.22,1.05
348,1.24,-2.37,-0.11,0.14,-0.23,1.05
349,0.98,-1.89,0.23,0.14,-0.21,1.04
350,1.54,-1.25,0.46,0.13,-0.23,1.05
351,2.05,-1.76,0.69,0.14,-0.22,1.05
352,2.41,-0.95,0.76,0.14,-0.22,1.04
353,2.38,-0.69,0.53,0.15,-0.22,1.04
354,2.67,0.17,0.44,0.14,-0.21,1.03
355,2.75,0.60,0.53,0.14,-0.21,1.02
356,2.09,1.63,0.69,0.13,-0.21,1.02
357,1.92,2.05,0.96,0.13,-0.21,1.02
358,2.12,1.86,1.22,0.13,-0.21,1.01
359,1.91,0.67,1.27,0.14,-0.20,1.01
360,1.56,-0.47,1.30,0.14,-0.20,1.00
361,1.63,-0.84,1.22,0.14,-0.20,1.00
362,1.13,0.03,1.50,0.14,-0.19,1.00
363,0.34,-0.34,1.13,0.16,-0.20,0.99
364,-0.92,-0.93,0.84,0.15,-0.20,1.01
365,-1.44,-0.96,0.63,0.15,-0.20,1.02
366,-1.40,-0.82,0.23,0.16,-0.20,1.03
367,-0.72,-0.75,-0.31,0.15,-0.21,1.04
368,0.14,0.44,-0.38,0.15,-0.21,1.04
369,0.53,1.63,-0.27,0.14,-0.20,1.04
370,0.44,1.91,0.11,0.14,-0.20,1.04
371,0.29,2.58,0.70,0.13,-0.20,1.03
372,0.81,2.35,0.61,0.12,-0.20,1.03
373,0.34,3.36,0.84,0.13,-0.21,1.02
374,0.72,2.92,0.90,0.13,-0.20,1.02
375,0.76,1.11,0.84,0.13,-0.20,1.02
376,0.03,0.03,0.81,0.12,-0.20,1.02
377,-0.18,-0.29,0.82,0.13,-0.20,1.02
378,-0.32,-0.09,0.76,0.14,-0.21,1.03
379,-0.15,-0.02,0.89,0.13,-0.20,1.02
380,0.29,1.36,1.05,0.14,-0.21,1.03
381,0.35,2.06,1.36,0.14,-0.21,1.03
382,0.49,2.29,1.44,0.15,-0.21,1.03
383,0.56,2.20,1.51,0.13,-0.21,1.02
384,0.56,2.96,1.25,0.14,-0.20,1.02
385,0.55,2.49,1.27,0.13,-0.21,1.03
386,0.90,3.11,1.40,0.13,-0.21,1.02
387,0.31,3.31,1.59,0.13,-0.21,1.02
388,-0.24,2.81,1.65,0.12,-0.21,1.01
389,-0.53,0.56,1.66,0.12,-0.21,1.02
390,-0.52,-1.56,1.73,0.13,-0.22,1.03
391,0.14,-2.72,1.85,0.13,-0.21,1.04
392,1.13,-1.98,2.24,0.13,-0.22,1.05
393,1.85,-0.31,2.44,0.14,-0.22,1.06
394,2.40,1.24,2.53,0.14,-0.21,1.05
395,2.69,3.69,2.52,0.15,-0.22,1.05
396,2.44,4.90,2.76,0.14,-0.21,1.04
397,2.02,3.62,2.73,0.12,-0.21,1.03
398,1.92,1.36,2.41,0.13,-0.21,1.01
399,1.08,0.72,2.52,0.14,-0.20,1.02
400,1.27,-0.81,2.02,0.14,-0.21,1.01
401,0.82,-1.62,1.59,0.15,-0.21,1.02
402,1.16,-1.73,1.18,0.15,-0.21,1.01
403,1.51,-1.48,1.05,0.16,-0.21,1.01
404,1.42,-1.11,0.93,0.14,-0.21,1.01
405,1.07,-1.25,1.11,0.15,-0.20,1.01
406,1.05,-0.72,1.57,0.13,-0.20,1.01
407,0.72,0.43,1.89,0.14,-0.21,1.01
408,0.64,1.62,2.15,0.14,-0.20,1.01
409,0.78,1.19,2.47,0.14,-0.20,1.02
410,0.72,0.43,2.31,0.15,-0.20,1.04
411,0.78,0.32,1.97,0.16,-0.21,1.03
412,0.98,-0.14,1.62,0.15,-0.20,1.03
413,1.18,-0.35,1.60,0.15,-0.21,1.01
414,1.22,-0.75,1.18,0.15,-0.21,1.01
415,1.19,-1.60,0.87,0.15,-0.20,1.03
416,1.22,-2.52,0.64,0.14,-0.21,1.02
417,0.98,-2.23,0.69,0.15,-0.21,1.03
418,0.69,-1.91,0.85,0.15,-0.20,1.02
419,0.73,-1.40,1.19,0.15,-0.21,1.03
420,0.99,-0.70,1.28,0.16,-0.20,1.04
421,0.70,-0.90,1.08,0.16,-0.21,1.03
422,0.70,-0.87,1.30,0.15,-0.20,1.03
423,1.11,-0.37,0.81,0.15,-0.21,1.01
424,1.34,-1.04,0.79,0.15,-0.20,0.99
425,0.72,-2.14,0.38,0.14,-0.20,1.01
426,0.24,-3.65,0.27,0.14,-0.20,1.00
427,0.17,-5.15,0.21,0.14,-0.20,1.00
428,0.02,-5.05,0.31,0.15,-0.21,1.01
429,-0.61,-4.75,0.58,0.15,-0.20,1.00
430,-1.15,-4.92,0.69,0.16,-0.21,1.00
431,-1.33,-3.94,0.75,0.15,-0.20,1.01
432,-1.77,-2.11,0.89,0.17,-0.20,1.01
433,-2.02,-0.70,0.78,0.16,-0.21,1.01
434,-1.79,-1.15,0.43,0.15,-0.21,1.02
435,-1.57,-0.12,0.06,0.15,-0.21,1.04
436,-1.24,0.20,-0.26,0.15,-0.22,1.04
437,-1.08,-0.52,-0.20,0.13,-0.21,1.05
438,-1.04,-2.53,0.38,0.12,-0.22,1.04
439,-0.99,-4.23,0.84,0.12,-0.21,1.04
440,-0.64,-3.04,1.24,0.14,-0.21,1.07
441,-0.14,-1.74,1.37,0.15,-0.22,1.06
442,0.29,-0.79,1.60,0.16,-0.22,1.06
443,0.66,-0.31,1.59,0.15,-0.22,1.06
444,0.99,0.52,1.47,0.15,-0.21,1.04
445,1.82,1.10,1.33,0.16,-0.22,1.04
446,2.50,1.16,0.90,0.16,-0.21,1.04
447,2.35,1.24,0.40,0.16,-0.21,1.04
448,1.65,1.10,-0.12,0.15,-0.20,1.01
449,1.65,-0.32,-0.72,0.14,-0.21,1.01
450,0.98,-1.33,-0.81,0.14,-0.20,1.00
451,0.29,-2.32,-1.24,0.14,-0.20,1.01
452,-0.17,-2.73,-0.92,0.14,-0.20,1.01
453,-0.60,-3.73,-0.70,0.13,-0.20,1.03
454,-1.13,-3.74,-0.38,0.15,-0.21,1.03
455,-0.95,-3.24,-0.52,0.16,-0.21,1.04
456,-0.26,-2.05,-0.46,0.16,-0.22,1.05
457,0.02,-1.28,-0.38,0.15,-0.22,1.05
458,0.35,-0.52,0.23,0.15,-0.22,1.06
459,0.84,0.76,0.20,0.15,-0.21,1.05
460,1.50,1.10,0.14,0.15,-0.22,1.05
461,2.35,2.00,-0.15,0.15,-0.22,1.05
462,2.52,1.50,0.11,0.14,-0.21,1.05
463,2.69,0.29,-0.17,0.14,-0.21,1.04
464,2.50,-0.64,-0.44,0.14,-0.21,1.02
465,2.52,-1.07,-0.75,0.14,-0.21,1.03
466,2.17,-1.51,-0.73,0.14,-0.20,1.02
467,2.00,-1.50,-0.56,0.15,-0.20,1.02
468,1.73,-1.57,-0.44,0.14,-0.20,1.01
469,1.50,-0.46,-0.02,0.15,-0.20,1.01
470,1.28,0.87,0.20,0.15,-0.19,1.01
471,0.37,1.07,0.20,0.14,-0.20,1.00
472,-0.26,0.47,0.20,0.14,-0.20,1.00
473,-0.53,-0.02,0.38,0.14,-0.20,1.01
474,-0.35,0.15,0.66,0.14,-0.20,1.01
475,-0.37,-1.44,0.78,0.14,-0.20,1.01
476,-0.35,-3.01,0.76,0.14,-0.21,1.03
477,0.11,-3.73,0.75,0.15,-0.20,1.03
478,0.52,-2.24,0.90,0.15,-0.21,1.03
479,1.44,-1.25,1.02,0.15,-0.20,1.04
480,1.88,-0.89,1.08,0.16,-0.20,1.02
481,1.83,-0.14,1.36,0.15,-0.19,1.03
482,1.95,-0.24,1.07,0.14,-0.20,1.01
483,2.14,-0.60,1.07,0.15,-0.20,1.02
484,2.89,-1.08,1.05,0.15,-0.19,1.01
485,2.95,-1.31,0.75,0.15,-0.19,1.01
486,3.34,-1.69,0.61,0.15,-0.20,1.01
487,2.75,-2.14,0.79,0.14,-0.19,1.00
488,2.27,-2.72,1.18,0.14,-0.19,0.99
489,1.86,-1.76,1.40,0.13,-0.19,0.98
490,1.68,-2.79,1.51,0.13,-0.18,0.99
491,1.79,-4.11,1.54,0.13,-0.19,0.98
492,2.08,-5.82,1.63,0.14,-0.19,1.00
493,2.35,-7.57,1.71,0.13,-0.19,0.99
494,2.37,-8.12,1.39,0.15,-0.19,0.99
495,1.15,-7.34,1.15,0.15,-0.19,0.98
496,0.73,-6.87,0.82,0.14,-0.20,0.99
497,1.11,-7.69,0.70,0.13,-0.20,0.99
498,1.97,-9.37,0.75,0.14,-0.20,1.01
499,3.91,-12.50,0.66,0.14,-0.20,1.00
500,6.26,-15.36,0.46,0.15,-0.20,1.02
501,7.10,-15.92,0.44,0.14,-0.19,1.01
502,8.67,-14.50,0.72,0.15,-0.19,0.99
503,8.82,1.50,-0.90,0.18,-0.19,0.93
504,6.34,-19.30,-0.37,0.09,-0.11,1.12
505,4.18,-10.20,1.27,0.15,-0.15,0.95
506,6.02,-16.12,1.25,0.12,-0.17,0.94
507,5.21,-21.05,0.98,0.12,-0.17,0.93
508,4.50,-22.50,1.04,0.13,-0.16,0.91
509,3.16,-22.27,1.18,0.16,-0.15,0.90
510,1.53,-22.29,0.69,0.14,-0.15,0.90
511,0.49,-27.40,0.96,0.12,-0.15,0.92
512,0.56,-34.23,1.97,0.07,-0.17,0.97
513,2.14,-40.73,3.79,0.06,-0.17,0.97
514,3.89,-44.61,5.16,0.09,-0.17,0.97
515,4.43,-49.37,5.28,0.09,-0.17,0.96
516,2.06,-50.63,4.90,0.13,-0.17,0.93
517,2.11,-58.31,2.79,0.14,-0.18,0.90
518,2.53,-68.72,0.92,0.15,-0.15,0.89
519,5.56,-76.08,-0.58,0.14,-0.13,0.81
520,5.88,-81.28,-0.90,0.11,-0.13,0.76
521,3.28,-86.29,0.05,0.11,-0.11,0.69
522,-1.28,-87.33,0.60,0.15,-0.10,0.64
523,-6.31,-87.74,0.96,0.15,-0.09,0.60
524,-11.80,-89.44,1.76,0.16,-0.09,0.57
525,-18.92,-91.51,2.09,0.15,-0.09,0.54
526,-24.26,-108.00,1.53,0.12,-0.10,0.52
527,-30.96,-93.19,4.98,0.26,-0.09,0.57
528,-34.58,-107.80,3.47,0.07,-0.12,0.51
529,-37.63,-116.50,4.02,0.06,-0.12,0.46
530,-43.05,-126.46,7.19,0.04,-0.10,0.42
531,-46.55,-138.93,9.66,0.02,-0.10,0.39
532,-46.76,-154.55,13.79,0.02,-0.12,0.36
533,-47.59,-171.04,18.58,0.05,-0.12,0.33
534,-47.60,-179.91,27.40,0.12,-0.13,0.27
535,-52.38,-183.34,30.05,0.18,-0.14,0.23
536,-55.45,-182.75,34.67,0.20,-0.16,0.21
537,-61.71,-179.79,39.15,0.23,-0.18,0.18
538,-68.03,-174.87,44.23,0.27,-0.21,0.17
539,-73.02,-171.19,48.38,0.30,-0.24,0.19
540,-76.60,-163.91,52.82,0.33,-0.26,0.23
541,-74.82,-161.54,57.36,0.30,-0.32,0.29
542,-78.23,-147.69,63.10,0.38,-0.33,0.24
543,-83.44,-132.11,68.75,0.40,-0.35,0.21
544,-91.95,-120.32,74.29,0.39,-0.36,0.18
545,-95.95,-116.58,78.06,0.40,-0.38,0.18
546,-99.89,-112.95,80.44,0.40,-0.43,0.16
547,-106.08,-108.89,83.53,0.40,-0.47,0.15
548,-109.34,-102.96,85.45,0.38,-0.50,0.15
549,-114.41,-98.18,88.96,0.33,-0.54,0.11
550,-118.93,-100.44,92.52,0.30,-0.55,0.10
551,-120.23,-103.11,95.98,0.28,-0.60,0.09
552,-122.20,-102.81,102.29,0.24,-0.66,0.07
553,-127.57,-106.08,107.60,0.25,-0.70,0.09
554,-130.26,-104.00,114.63,0.25,-0.75,0.10
555,-132.75,-110.55,120.02,0.26,-0.76,0.10
556,-132.79,-104.08,126.34,0.34,-0.80,0.01
557,-146.00,-99.16,132.58,0.36,-0.80,0.01
558,-155.66,-107.30,135.15,0.37,-0.86,0.01
559,-155.27,-114.02,135.15,0.40,-0.88,-0.04
560,-162.27,-101.37,137.60,0.43,-0.96,-0.07
561,-157.11,-103.33,138.60,0.43,-1.05,-0.01
562,-149.66,-116.49,139.42,0.39,-1.10,0.02
563,-154.90,-122.12,145.33,0.35,-1.13,-0.02
564,-166.78,-131.24,157.30,0.23,-1.23,-0.06
565,-180.96,-144.46,175.31,0.09,-1.30,-0.06
566,-189.18,-154.81,196.12,0.04,-1.36,-0.02
567,-195.85,-143.83,214.05,0.24,-1.44,0.10
568,-197.47,-112.58,223.53,0.51,-1.48,0.28
569,-191.57,-77.36,221.94,0.72,-1.50,0.40
570,-181.79,-55.40,214.60,0.82,-1.49,0.46
571,-169.37,-56.08,202.08,0.85,-1.51,0.42
572,-159.44,-65.16,187.76,0.85,-1.55,0.30
573,-158.89,-70.63,173.76,0.87,-1.52,0.23
574,-158.50,-74.24,158.70,0.79,-1.57,0.16
575,-157.73,-76.72,147.07,0.74,-1.56,0.09
576,-163.07,-70.26,138.72,0.67,-1.59,0.09
577,-167.33,-67.54,132.87,0.59,-1.61,0.10
578,-168.23,-64.92,128.63,0.55,-1.61,0.14
579,-168.27,-54.43,127.65,0.47,-1.62,0.18
580,-165.91,-46.09,132.06,0.37,-1.59,0.18
581,-163.22,-44.31,142.24,0.30,-1.58,0.16
582,-160.05,-35.21,153.28,0.31,-1.57,0.14
583,-157.42,-27.97,162.75,0.35,-1.54,0.12
584,-155.08,-24.66,169.92,0.42,-1.49,0.05
585,-156.05,-17.69,173.48,0.48,-1.46,-0.07
586,-160.76,-13.27,172.46,0.51,-1.44,-0.18
587,-165.95,-17.07,166.98,0.52,-1.43,-0.30
588,-174.93,-34.82,158.31,0.50,-1.43,-0.41
589,-185.65,-60.75,143.85,0.49,-1.44,-0.52
590,-194.98,-77.65,129.77,0.48,-1.45,-0.55
591,-201.11,-89.77,116.72,0.40,-1.50,-0.53
592,-212.20,-98.81,106.79,0.37,-1.53,-0.45
593,-217.53,-89.82,97.13,0.37,-1.53,-0.38
594,-217.21,-73.54,92.61,0.31,-1.51,-0.27
595,-215.15,-59.63,95.82,0.19,-1.55,-0.20
596,-213.25,-46.67,102.18,0.12,-1.54,-0.09
597,-207.56,-23.15,110.18,0.12,-1.55,-0.17
598,-204.40,-18.32,119.04,0.07,-1.52,-0.13
599,-200.61,-16.49,125.65,0.16,-1.53,-0.17
600,-199.73,-1.77,124.08,0.23,-1.48,-0.19
601,-193.60,16.17,115.80,0.30,-1.49,-0.20
602,-189.44,26.75,105.44,0.29,-1.45,-0.26
603,-183.74,17.13,95.65,0.27,-1.46,-0.31
604,-178.29,6.90,84.75,0.32,-1.51,-0.34
605,-177.66,8.43,75.56,0.36,-1.53,-0.36
606,-176.32,12.47,69.89,0.41,-1.55,-0.32
607,-174.63,15.07,65.54,0.40,-1.54,-0.25
608,-170.96,9.56,63.07,0.35,-1.55,-0.23
609,-152.46,-4.87,62.27,0.23,-1.65,-0.20
610,-168.89,-5.60,64.76,0.35,-1.47,-0.23
611,-182.21,-6.00,69.05,0.33,-1.39,-0.30
612,-198.89,-3.98,73.77,0.23,-1.41,-0.32
613,-202.43,7.24,78.17,0.20,-1.52,-0.29
614,-209.37,21.42,76.12,0.26,-1.52,-0.17
615,-198.60,19.53,69.28,0.33,-1.49,-0.06
616,-187.98,3.45,60.50,0.36,-1.48,0.01
617,-164.76,-8.47,49.39,0.40,-1.46,0.05
618,-143.47,-2.17,37.31,0.48,-1.41,0.03
619,-124.46,-11.44,28.46,0.38,-1.37,0.05
620,-103.33,-15.22,20.29,0.36,-1.34,-0.07
621,-81.16,-16.27,11.71,0.34,-1.28,-0.17
622,-69.60,-4.78,3.44,0.32,-1.22,-0.22
623,-57.79,0.00,-1.95,0.25,-1.18,-0.28
624,-49.80,8.14,-4.55,0.19,-1.12,-0.33
625,-43.68,19.37,-5.30,0.15,-1.05,-0.41
626,-36.26,24.23,-4.60,0.10,-1.02,-0.45
627,-30.78,24.52,-2.08,0.04,-1.00,-0.46
628,-29.89,26.17,0.93,0.00,-0.95,-0.49
629,-30.02,29.45,5.37,0.00,-0.88,-0.54
630,-27.66,32.58,7.59,0.01,-0.85,-0.56
631,-25.36,32.47,8.58,0.02,-0.81,-0.57
632,-21.02,33.56,7.04,0.03,-0.79,-0.57
633,-17.30,35.50,4.90,0.03,-0.78,-0.57
634,-13.85,30.76,1.86,0.06,-0.75,-0.58
635,-11.30,27.04,-1.08,0.05,-0.75,-0.61
636,-11.50,27.92,-2.84,0.05,-0.74,-0.64
637,-11.11,26.23,-6.55,0.04,-0.73,-0.64
638,-7.69,25.18,-9.60,0.03,-0.72,-0.65
639,-6.56,24.53,-11.08,0.01,-0.73,-0.67
640,-8.85,25.83,-10.56,-0.01,-0.76,-0.67
641,-12.41,27.10,-9.18,-0.03,-0.78,-0.66
642,-12.55,27.79,-7.57,-0.03,-0.77,-0.63
643,-10.96,27.24,-6.26,-0.02,-0.77,-0.58
644,-7.36,23.91,-6.31,-0.01,-0.76,-0.57
645,-4.53,22.09,-6.24,-0.02,-0.73,-0.57
646,-2.66,23.15,-5.37,-0.04,-0.70,-0.57
647,0.90,20.79,-3.39,-0.05,-0.67,-0.57
648,5.13,17.10,-1.18,-0.07,-0.66,-0.56
649,8.66,16.73,0.70,-0.05,-0.65,-0.59
650,11.37,16.14,1.15,-0.02,-0.65,-0.61
651,14.63,14.44,-0.53,0.01,-0.66,-0.63
652,17.07,11.31,-2.89,0.03,-0.67,-0.67
653,15.86,8.09,-6.09,0.06,-0.67,-0.70
654,15.62,7.44,-10.20,0.05,-0.67,-0.73
655,15.31,7.73,-14.37,0.06,-0.68,-0.71
656,14.67,8.53,-17.51,0.05,-0.69,-0.69
657,15.11,9.80,-19.39,0.02,-0.69,-0.66
658,14.20,12.87,-19.73,0.00,-0.68,-0.62
659,15.33,11.04,-20.02,-0.06,-0.70,-0.62
660,15.56,9.22,-18.26,-0.07,-0.69,-0.60
661,16.92,6.32,-16.27,-0.08,-0.72,-0.58
662,15.10,6.53,-14.26,-0.10,-0.70,-0.57
663,14.55,2.82,-8.50,-0.09,-0.71,-0.58
664,7.39,31.13,-2.14,-0.03,-0.70,-0.65
665,3.16,27.62,-0.78,-0.04,-0.65,-0.66
666,6.31,19.01,1.50,-0.03,-0.66,-0.63
667,7.22,24.34,1.76,0.01,-0.68,-0.62
668,9.62,24.96,0.27,0.01,-0.67,-0.60
669,12.43,21.51,-2.21,0.02,-0.68,-0.57
670,12.03,25.16,-4.37,0.03,-0.71,-0.57
671,13.66,19.82,-5.74,-0.00,-0.70,-0.57
672,16.12,10.20,-8.23,-0.02,-0.70,-0.60
673,16.92,3.86,-9.13,-0.02,-0.67,-0.63
674,18.21,0.75,-9.89,-0.03,-0.67,-0.65
675,17.82,-5.80,-9.62,-0.04,-0.68,-0.66
676,17.30,-4.32,-9.24,-0.01,-0.65,-0.69
