,gyro_x,gyro_y,gyro_z,acce_x,acce_y,acce_z
0,-0.24,-8.14,12.08,0.10,-0.22,1.03
1,-0.23,-8.29,12.44,0.11,-0.23,1.03
2,-0.31,-7.71,12.70,0.12,-0.23,1.03
3,-0.40,-6.21,12.63,0.12,-0.23,1.03
4,-0.52,-6.61,12.58,0.12,-0.22,1.04
5,-0.60,-6.92,12.11,0.12,-0.22,1.03
6,-0.81,-6.70,12.18,0.14,-0.22,1.02
7,-1.01,-6.53,11.56,0.14,-0.21,1.02
8,-1.44,-6.47,11.16,0.16,-0.21,1.02
9,-1.39,-5.13,10.18,0.18,-0.20,1.03
10,-1.74,-3.80,9.42,0.18,-0.19,1.03
11,-1.39,-3.40,8.72,0.17,-0.20,1.04
12,-1.30,-1.73,8.81,0.17,-0.19,1.04
13,-1.33,-0.93,8.55,0.17,-0.19,1.04
14,-1.13,-0.52,8.41,0.17,-0.19,1.04
15,-0.96,0.03,8.23,0.17,-0.19,1.04
16,-0.78,1.11,7.42,0.18,-0.19,1.05
17,-0.84,2.92,7.24,0.19,-0.19,1.04
18,-0.63,2.99,6.76,0.17,-0.19,1.04
19,-0.78,3.42,6.24,0.17,-0.19,1.04
20,-1.28,4.29,6.00,0.18,-0.18,1.03
21,-1.80,5.51,5.60,0.17,-0.18,1.03
22,-2.00,5.18,5.02,0.16,-0.18,1.03
23,-2.47,5.21,4.72,0.16,-0.18,1.05
24,-1.94,5.74,4.44,0.16,-0.18,1.04
25,-1.22,5.92,3.69,0.16,-0.18,1.05
26,-0.47,6.52,3.10,0.16,-0.18,1.06
27,-0.29,7.85,2.69,0.15,-0.18,1.04
28,-0.35,8.05,2.05,0.14,-0.18,1.05
29,-0.27,7.68,1.66,0.13,-0.18,1.04
30,-0.15,7.56,1.47,0.13,-0.18,1.04
31,0.27,8.08,1.45,0.13,-0.19,1.02
32,0.32,8.87,0.99,0.13,-0.19,1.03
33,0.34,9.02,1.21,0.12,-0.19,1.04
34,0.20,8.29,1.07,0.10,-0.19,1.03
35,0.43,7.42,1.48,0.09,-0.19,1.05
36,1.11,6.64,1.15,0.10,-0.20,1.06
37,1.30,7.51,1.07,0.09,-0.20,1.04
38,1.77,7.94,1.16,0.08,-0.19,1.03
39,1.94,7.37,1.31,0.08,-0.19,1.05
40,1.97,7.18,1.19,0.09,-0.20,1.02
41,1.66,6.17,1.22,0.08,-0.19,1.02
42,1.92,5.51,0.98,0.09,-0.19,1.01
43,2.03,4.20,0.60,0.07,-0.19,1.01
44,1.77,4.52,0.95,0.08,-0.19,1.02
45,2.21,4.61,0.49,0.09,-0.19,1.03
46,1.74,3.34,0.52,0.08,-0.19,1.03
47,1.73,1.91,0.06,0.08,-0.19,1.03
48,2.09,1.63,0.18,0.08,-0.19,1.03
49,2.09,1.82,0.53,0.09,-0.18,1.02
50,1.85,2.15,0.98,0.09,-0.18,1.03
51,1.92,2.18,0.82,0.09,-0.18,1.02
52,1.97,2.78,1.01,0.10,-0.17,1.02
53,1.97,3.27,1.05,0.10,-0.17,1.02
54,1.65,3.24,1.05,0.09,-0.17,1.02
55,1.79,3.10,1.11,0.10,-0.18,1.03
56,1.71,2.61,0.87,0.10,-0.17,1.02
57,1.85,2.24,1.10,0.10,-0.17,1.03
58,1.83,0.96,0.85,0.10,-0.16,1.03
59,1.33,0.73,0.82,0.11,-0.16,1.03
60,1.44,1.10,0.69,0.11,-0.17,1.02
61,1.57,1.76,0.79,0.10,-0.16,1.03
62,1.82,2.09,0.89,0.10,-0.16,1.04
63,2.24,2.82,1.04,0.10,-0.16,1.04
64,1.69,1.82,0.44,0.09,-0.16,1.03
65,1.69,2.87,0.49,0.10,-0.17,1.02
66,1.34,2.23,-0.02,0.10,-0.16,1.01
67,0.98,1.80,-0.27,0.09,-0.16,1.02
68,0.85,1.77,-0.46,0.09,-0.16,1.00
69,0.18,0.52,-0.35,0.09,-0.16,1.01
70,0.14,-0.75,-0.34,0.09,-0.16,1.02
71,-0.49,-1.47,-0.08,0.09,-0.16,1.02
72,-0.37,-2.43,-0.09,0.09,-0.16,1.04
73,-0.32,-3.08,-0.02,0.09,-0.17,1.05
74,-0.37,-3.36,0.18,0.10,-0.16,1.05
75,-0.15,-3.71,0.08,0.09,-0.17,1.05
76,0.37,-4.47,-0.03,0.09,-0.17,1.05
77,0.72,-3.85,-0.03,0.09,-0.17,1.05
78,1.42,-2.81,0.23,0.10,-0.17,1.05
79,1.51,-2.46,-0.11,0.09,-0.17,1.05
80,1.39,-2.53,-0.18,0.09,-0.17,1.04
81,1.34,-2.08,-0.20,0.09,-0.17,1.03
82,1.27,-2.63,-0.05,0.09,-0.17,1.03
83,1.28,-2.95,0.00,0.09,-0.17,1.03
84,1.21,-3.25,-0.14,0.10,-0.17,1.04
85,1.11,-3.34,-0.24,0.09,-0.17,1.03
86,1.16,-4.12,-0.31,0.09,-0.17,1.05
87,1.22,-5.04,-0.08,0.08,-0.17,1.04
88,1.19,-5.71,0.11,0.09,-0.17,1.05
89,1.47,-5.40,-0.17,0.09,-0.17,1.05
90,1.80,-5.05,-0.63,0.10,-0.18,1.05
91,2.05,-4.64,-0.56,0.10,-0.17,1.05
92,2.08,-4.05,-0.35,0.10,-0.18,1.05
93,2.29,-3.57,-0.06,0.08,-0.17,1.06
94,2.55,-2.63,0.52,0.09,-0.17,1.05
95,2.47,-1.50,0.55,0.10,-0.17,1.05
96,2.67,-1.16,0.60,0.10,-0.17,1.06
97,2.92,-1.69,0.67,0.09,-0.17,1.05
98,3.16,-2.56,0.69,0.09,-0.16,1.05
99,3.07,-2.47,1.05,0.09,-0.17,1.05
100,3.27,-2.37,1.07,0.09,-0.16,1.04
101,2.49,-2.95,0.85,0.09,-0.16,1.03
102,2.12,-3.82,0.41,0.09,-0.16,1.03
103,1.83,-4.37,0.47,0.09,-0.17,1.04
104,1.57,-4.66,0.26,0.09,-0.17,1.04
105,1.74,-4.17,0.26,0.10,-0.17,1.04
106,2.08,-4.96,-0.32,0.10,-0.16,1.05
107,2.20,-4.05,-0.43,0.11,-0.16,1.05
108,2.24,-4.98,-0.52,0.09,-0.17,1.05
109,2.21,-5.37,-0.14,0.09,-0.16,1.05
110,1.95,-4.85,0.17,0.10,-0.16,1.05
111,2.31,-4.49,0.40,0.10,-0.16,1.05
112,2.66,-3.91,0.78,0.10,-0.16,1.05
113,2.55,-2.64,1.05,0.11,-0.16,1.04
114,2.52,-1.33,1.28,0.11,-0.16,1.03
115,2.72,-1.88,0.99,0.11,-0.15,1.04
116,2.37,-2.35,0.67,0.11,-0.15,1.02
117,2.02,-1.68,0.60,0.11,-0.16,1.02
118,2.26,-2.40,0.63,0.11,-0.16,1.03
119,2.49,-2.79,0.95,0.10,-0.16,1.03
120,2.21,-3.44,0.63,0.11,-0.16,1.01
121,2.02,-3.24,0.67,0.11,-0.16,1.02
122,1.86,-3.45,0.17,0.11,-0.16,1.02
123,1.76,-3.21,-0.12,0.11,-0.16,1.03
124,1.76,-2.21,-0.38,0.11,-0.16,1.02
125,1.76,-2.00,-0.47,0.10,-0.16,1.03
126,1.80,-2.24,-0.21,0.10,-0.16,1.02
127,1.89,-1.28,-0.06,0.10,-0.16,1.03
128,1.85,-0.99,0.14,0.10,-0.16,1.03
129,1.56,-0.15,0.66,0.10,-0.16,1.01
130,1.28,0.06,0.47,0.11,-0.16,1.00
131,0.82,0.02,0.76,0.10,-0.16,1.01
132,0.47,0.60,1.07,0.11,-0.15,1.02
133,-0.08,0.24,0.70,0.10,-0.16,1.01
134,-0.27,-0.12,0.85,0.10,-0.16,1.02
135,-0.03,-0.66,0.92,0.10,-0.16,1.03
136,-0.35,-0.98,0.76,0.10,-0.16,1.03
137,-0.72,-0.52,0.82,0.11,-0.16,1.02
138,-1.05,-0.27,0.93,0.10,-0.17,1.03
139,-1.28,0.37,0.87,0.11,-0.16,1.02
140,-1.08,1.11,0.87,0.11,-0.17,1.02
141,-1.51,1.04,0.82,0.11,-0.16,1.02
142,-1.80,1.19,0.95,0.11,-0.16,1.02
143,-2.17,1.60,1.11,0.12,-0.16,1.03
144,-2.11,1.53,1.07,0.12,-0.16,1.05
145,-2.09,0.67,0.60,0.11,-0.17,1.05
146,-1.65,1.18,0.14,0.12,-0.17,1.05
147,-1.56,2.35,0.08,0.12,-0.16,1.05
148,-1.40,2.52,0.31,0.10,-0.17,1.05
149,-1.68,1.94,0.44,0.10,-0.17,1.04
150,-1.79,2.95,0.87,0.11,-0.17,1.04
151,-1.74,3.59,0.81,0.11,-0.16,1.04
152,-1.74,4.64,0.63,0.11,-0.16,1.05
153,-1.71,5.54,0.50,0.12,-0.16,1.06
154,-1.44,4.72,0.29,0.11,-0.16,1.07
155,-1.59,2.89,0.09,0.10,-0.16,1.06
156,-1.22,2.31,0.03,0.10,-0.16,1.07
157,-0.69,2.32,-0.06,0.10,-0.16,1.06
158,-0.20,2.03,-0.11,0.10,-0.16,1.07
159,0.55,2.29,-0.32,0.10,-0.17,1.07
160,0.81,2.43,-0.50,0.10,-0.17,1.07
161,0.99,2.03,-0.38,0.10,-0.16,1.06
162,1.34,2.15,-0.26,0.10,-0.16,1.07
163,1.65,2.95,0.08,0.10,-0.16,1.08
164,1.80,3.74,0.31,0.10,-0.16,1.06
165,1.77,4.40,0.64,0.09,-0.16,1.07
166,2.02,4.89,1.01,0.09,-0.16,1.06
167,1.73,5.50,1.50,0.09,-0.15,1.05
168,1.62,5.89,1.85,0.09,-0.15,1.06
169,2.15,6.15,1.94,0.09,-0.16,1.06
170,2.09,5.07,1.88,0.09,-0.15,1.05
171,1.83,5.28,2.14,0.09,-0.16,1.05
172,1.34,4.08,1.62,0.09,-0.15,1.06
173,1.63,3.79,1.42,0.09,-0.15,1.05
174,2.24,2.00,1.02,0.08,-0.16,1.07
175,2.15,2.34,0.73,0.09,-0.16,1.06
176,2.20,2.99,0.75,0.10,-0.17,1.06
177,2.27,3.11,0.72,0.09,-0.17,1.05
178,2.27,3.11,0.81,0.09,-0.16,1.05
179,2.53,3.62,1.04,0.08,-0.16,1.06
180,2.52,4.00,1.45,0.08,-0.16,1.06
181,2.50,4.87,1.91,0.08,-0.16,1.06
182,2.99,4.12,1.83,0.08,-0.16,1.05
183,2.99,3.63,1.80,0.09,-0.17,1.05
184,3.16,2.89,1.83,0.08,-0.17,1.06
185,2.90,1.69,1.66,0.09,-0.16,1.04
186,2.76,0.87,1.71,0.09,-0.16,1.05
187,2.98,0.41,1.65,0.08,-0.16,1.05
188,3.01,-0.50,1.60,0.09,-0.16,1.04
189,2.70,0.03,1.53,0.08,-0.16,1.04
190,2.29,0.41,1.66,0.08,-0.16,1.04
191,2.32,0.63,1.33,0.08,-0.16,1.04
192,2.15,1.24,1.57,0.08,-0.15,1.03
193,2.02,1.88,1.56,0.09,-0.16,1.03
194,1.88,2.03,1.57,0.09,-0.15,1.02
195,1.60,1.42,1.63,0.08,-0.15,1.02
196,1.53,1.48,1.79,0.07,-0.15,1.02
197,1.08,0.72,2.11,0.08,-0.15,1.01
198,0.90,0.66,2.29,0.07,-0.15,1.01
199,0.90,-0.27,2.18,0.09,-0.14,1.02
200,0.52,-1.53,1.95,0.08,-0.15,1.02
201,0.31,-1.27,1.86,0.10,-0.15,1.02
202,0.17,-1.45,1.69,0.09,-0.15,1.02
203,0.08,-2.41,1.95,0.08,-0.14,1.01
204,-0.15,-1.57,1.66,0.09,-0.14,1.02
205,-0.09,-0.76,1.76,0.09,-0.15,1.03
206,-0.08,-0.60,1.77,0.09,-0.15,1.03
207,-0.14,-1.11,1.92,0.08,-0.15,1.03
208,-0.35,-1.04,2.14,0.08,-0.15,1.02
209,-0.06,-1.34,2.24,0.08,-0.15,1.03
210,0.00,-0.60,2.31,0.09,-0.15,1.03
211,-0.21,-0.38,2.20,0.09,-0.15,1.03
212,-0.37,-0.53,2.23,0.09,-0.15,1.02
213,-0.46,-0.75,2.44,0.09,-0.15,1.02
214,-0.82,-2.31,2.55,0.09,-0.15,1.03
215,-0.60,-2.40,2.34,0.10,-0.16,1.04
216,-0.18,-2.37,1.68,0.10,-0.16,1.03
217,-0.40,-2.61,1.76,0.10,-0.15,1.04
218,-0.64,-2.75,1.62,0.10,-0.15,1.04
219,-0.89,-2.56,1.30,0.10,-0.15,1.03
220,-0.66,-2.00,1.51,0.10,-0.15,1.03
221,-0.44,-1.82,1.45,0.10,-0.15,1.03
222,-0.20,-1.05,1.48,0.10,-0.15,1.03
223,0.00,-0.18,1.65,0.10,-0.15,1.03
224,-0.15,0.17,1.65,0.11,-0.15,1.02
225,-0.03,-0.37,1.86,0.10,-0.15,1.03
226,-0.23,-1.16,1.80,0.09,-0.15,1.03
227,-0.27,-1.02,1.50,0.09,-0.15,1.03
228,-0.20,-2.31,1.44,0.09,-0.16,1.04
229,-0.29,-2.52,1.27,0.10,-0.16,1.03
230,-0.32,-3.51,0.56,0.10,-0.15,1.03
231,-0.82,-3.73,0.41,0.10,-0.16,1.02
232,-0.93,-3.94,0.52,0.10,-0.16,1.03
233,-1.27,-4.12,0.50,0.10,-0.16,1.03
234,-1.37,-3.31,0.49,0.11,-0.15,1.03
235,-1.34,-3.16,0.47,0.11,-0.16,1.03
236,-0.87,-2.47,0.99,0.11,-0.16,1.04
237,-0.85,-2.79,1.21,0.10,-0.16,1.05
238,-0.78,-3.25,1.18,0.10,-0.15,1.05
239,-0.67,-3.10,1.36,0.11,-0.15,1.05
240,-0.58,-2.32,1.40,0.11,-0.16,1.04
241,-0.60,-1.89,1.21,0.11,-0.15,1.05
242,-0.47,-1.25,1.13,0.11,-0.16,1.04
243,-0.52,-1.86,1.19,0.12,-0.15,1.05
244,-0.90,-2.93,0.87,0.11,-0.15,1.06
245,-0.84,-3.10,0.89,0.11,-0.15,1.04
246,-1.04,-2.31,0.89,0.12,-0.15,1.04
247,-0.79,-1.71,0.21,0.13,-0.16,1.05
248,-0.75,-1.13,-0.21,0.12,-0.15,1.04
249,-0.76,-1.02,-0.38,0.12,-0.15,1.04
250,-0.89,-0.89,-0.35,0.11,-0.15,1.05
251,-0.55,-0.46,-0.44,0.11,-0.15,1.04
252,-0.60,-0.35,-0.49,0.11,-0.15,1.05
253,-0.78,-0.44,-0.60,0.11,-0.15,1.05
254,-0.92,-0.79,-0.38,0.11,-0.15,1.04
255,-0.92,-1.18,-0.43,0.10,-0.15,1.04
256,-1.21,-1.76,-0.35,0.11,-0.14,1.04
257,-1.51,-2.12,-0.02,0.10,-0.15,1.05
258,-1.11,-2.63,-0.20,0.09,-0.15,1.05
259,-1.30,-3.16,0.05,0.09,-0.16,1.06
260,-1.07,-3.13,0.02,0.10,-0.16,1.06
261,-0.66,-2.70,0.02,0.10,-0.16,1.07
262,-0.55,-2.09,-0.06,0.10,-0.16,1.06
263,-0.12,-1.45,-0.34,0.09,-0.17,1.07
264,0.08,-1.39,0.02,0.10,-0.17,1.07
265,0.60,-1.42,0.21,0.09,-0.17,1.07
266,0.87,-0.31,0.44,0.09,-0.18,1.08
267,0.95,0.69,0.53,0.09,-0.17,1.07
268,1.13,0.29,0.66,0.09,-0.17,1.07
269,1.22,0.27,1.08,0.09,-0.17,1.07
270,1.91,-0.69,1.34,0.08,-0.18,1.07
271,2.12,-1.71,1.05,0.09,-0.17,1.07
272,2.34,-0.63,1.36,0.10,-0.16,1.06
273,2.75,-0.11,1.47,0.09,-0.16,1.07
274,3.05,0.56,1.82,0.09,-0.16,1.05
275,3.22,1.01,1.97,0.09,-0.16,1.05
276,3.19,1.21,2.03,0.09,-0.16,1.03
277,3.04,1.33,2.12,0.11,-0.16,1.03
278,2.67,1.44,2.44,0.11,-0.16,1.03
279,2.40,1.28,2.35,0.11,-0.16,1.02
280,2.35,1.04,2.20,0.11,-0.16,1.03
281,2.29,0.05,2.09,0.10,-0.15,1.04
282,2.20,-0.96,1.50,0.11,-0.15,1.03
283,2.11,-1.16,1.33,0.11,-0.15,1.04
284,2.27,-1.22,1.21,0.11,-0.15,1.04
285,2.02,-0.72,1.31,0.11,-0.15,1.04
286,1.85,-0.40,1.22,0.11,-0.15,1.03
287,1.83,0.20,1.27,0.11,-0.16,1.03
288,1.97,0.64,1.37,0.10,-0.15,1.03
289,2.02,1.85,1.91,0.11,-0.15,1.02
290,2.00,3.25,2.05,0.11,-0.15,1.01
291,1.65,3.24,2.14,0.11,-0.15,1.01
292,1.53,2.85,1.88,0.11,-0.16,1.02
293,1.44,2.76,2.08,0.11,-0.15,1.02
294,1.05,2.09,1.56,0.10,-0.15,1.01
295,0.69,1.22,1.34,0.10,-0.15,1.02
296,0.26,0.84,1.25,0.10,-0.15,1.01
297,0.02,0.44,1.27,0.09,-0.15,1.02
298,-0.26,0.15,1.31,0.09,-0.15,1.02
299,-0.50,-0.06,1.34,0.10,-0.15,1.02
300,-0.90,0.17,1.42,0.11,-0.16,1.02
301,-1.07,1.13,1.34,0.11,-0.15,1.03
302,-0.92,1.45,1.37,0.11,-0.15,1.03
303,-0.72,1.86,1.68,0.10,-0.15,1.03
304,-0.18,2.34,1.59,0.11,-0.16,1.04
305,0.05,3.22,1.66,0.11,-0.16,1.05
306,0.12,3.79,1.88,0.10,-0.16,1.04
307,0.26,4.60,1.95,0.10,-0.15,1.03
308,-0.05,4.58,2.24,0.10,-0.16,1.04
309,0.03,4.34,2.29,0.09,-0.16,1.04
310,0.08,4.85,2.38,0.10,-0.16,1.05
311,0.15,4.53,2.20,0.10,-0.16,1.03
312,-0.20,3.39,2.03,0.10,-0.15,1.04
313,-0.23,2.96,1.89,0.09,-0.15,1.03
314,-0.43,2.31,1.53,0.09,-0.15,1.03
315,-0.53,1.63,1.39,0.09,-0.15,1.03
316,-0.52,1.05,1.34,0.10,-0.15,1.04
317,-0.58,0.78,1.57,0.10,-0.15,1.04
318,-0.29,1.33,1.40,0.10,-0.15,1.04
319,-0.09,1.65,1.34,0.09,-0.15,1.03
320,-0.41,1.69,1.18,0.09,-0.15,1.04
321,-0.67,2.43,1.34,0.09,-0.15,1.04
322,-0.46,3.10,1.63,0.08,-0.15,1.04
323,-0.27,2.49,1.59,0.09,-0.15,1.05
324,-0.08,1.53,1.18,0.09,-0.15,1.05
325,-0.32,0.73,0.96,0.09,-0.15,1.05
326,-0.41,-0.06,0.95,0.09,-0.15,1.05
327,-0.85,-1.21,1.13,0.09,-0.16,1.06
328,-0.81,-1.19,1.19,0.08,-0.16,1.06
329,-0.90,-0.44,1.16,0.10,-0.16,1.06
330,-0.56,-0.52,1.05,0.09,-0.16,1.06
331,-0.20,0.14,1.48,0.08,-0.16,1.07
332,0.11,0.60,1.68,0.08,-0.16,1.07
333,0.21,0.75,2.29,0.08,-0.16,1.07
334,0.32,0.61,2.53,0.08,-0.16,1.06
335,0.81,0.64,2.32,0.08,-0.16,1.06
336,0.79,0.08,2.03,0.09,-0.16,1.06
337,0.78,0.03,2.24,0.08,-0.16,1.05
338,0.70,-0.06,2.46,0.08,-0.16,1.05
339,0.40,0.00,2.46,0.10,-0.15,1.04
340,0.75,-0.75,2.61,0.09,-0.16,1.04
341,0.79,-1.53,2.40,0.10,-0.16,1.04
342,0.76,-1.62,2.44,0.09,-0.15,1.03
343,0.46,-2.40,2.32,0.10,-0.15,1.03
344,0.38,-2.44,2.35,0.09,-0.15,1.02
345,0.24,-2.67,1.95,0.11,-0.16,1.03
346,0.32,-2.00,1.73,0.11,-0.15,1.03
347,0.23,-1.51,1.68,0.11,-0.15,1.05
348,-0.08,-0.75,1.77,0.11,-0.15,1.02
349,-0.06,-0.29,1.62,0.11,-0.16,1.03
350,-0.17,-0.06,1.63,0.12,-0.15,1.04
351,-0.20,-0.41,1.59,0.11,-0.15,1.03
352,-0.05,-0.06,1.28,0.11,-0.15,1.04
353,-0.09,-0.85,1.15,0.10,-0.15,1.06
354,-0.11,-1.69,1.18,0.11,-0.15,1.05
355,-0.44,-1.34,1.01,0.11,-0.14,1.04
356,-0.56,-2.53,0.58,0.11,-0.15,1.05
357,-0.67,-2.61,0.50,0.11,-0.15,1.05
358,-0.73,-2.35,-0.02,0.11,-0.15,1.04
359,-0.78,-2.14,-0.27,0.11,-0.15,1.04
360,-0.98,-2.41,-0.43,0.11,-0.15,1.07
361,-0.63,-2.18,-0.66,0.10,-0.16,1.07
362,-0.17,-2.27,-0.63,0.10,-0.16,1.07
363,0.23,-0.90,-0.29,0.10,-0.16,1.06
364,0.29,-0.09,-0.02,0.10,-0.16,1.07
365,0.70,0.06,0.14,0.09,-0.17,1.06
366,0.79,0.29,0.49,0.09,-0.17,1.06
367,0.95,0.53,0.64,0.09,-0.17,1.06
368,1.34,0.58,0.35,0.09,-0.17,1.05
369,1.34,-0.46,0.12,0.09,-0.17,1.05
370,1.25,-1.08,0.09,0.09,-0.17,1.05
371,1.02,-1.34,0.08,0.09,-0.17,1.04
372,1.13,-2.31,-0.17,0.09,-0.18,1.06
373,1.74,-2.79,-0.03,0.08,-0.17,1.06
374,1.98,-2.69,0.34,0.08,-0.17,1.05
375,2.12,-2.67,0.61,0.09,-0.17,1.05
376,2.15,-2.34,0.66,0.09,-0.17,1.04
377,2.06,-2.37,0.79,0.10,-0.16,1.04
378,2.27,-1.83,0.82,0.10,-0.16,1.04
379,2.12,-1.40,0.78,0.10,-0.16,1.04
380,2.31,-0.79,0.81,0.11,-0.15,1.04
381,2.05,-0.67,0.60,0.11,-0.16,1.03
382,1.82,-0.49,-0.17,0.12,-0.16,1.03
383,1.51,-0.46,-0.17,0.11,-0.16,1.04
384,1.36,-1.21,-0.37,0.11,-0.16,1.04
385,1.42,-1.36,-0.52,0.11,-0.16,1.03
386,1.05,-1.28,-0.50,0.12,-0.16,1.03
387,0.72,-1.15,-0.53,0.12,-0.16,1.03
388,0.38,-1.82,-0.84,0.12,-0.16,1.03
389,-0.11,-2.79,-1.04,0.12,-0.15,1.03
390,-0.34,-3.25,-1.27,0.13,-0.16,1.03
391,-0.60,-2.53,-1.53,0.12,-0.16,1.03
392,-0.78,-2.49,-1.60,0.12,-0.16,1.03
393,-0.53,-1.97,-1.73,0.12,-0.16,1.04
394,-0.63,-1.42,-1.51,0.12,-0.16,1.04
395,-0.29,-1.21,-2.03,0.12,-0.16,1.03
396,-0.21,-0.21,-2.34,0.12,-0.15,1.04
397,-0.21,0.75,-2.95,0.12,-0.15,1.04
398,-0.34,1.01,-3.21,0.11,-0.16,1.04
399,0.02,0.64,-3.28,0.10,-0.16,1.05
400,-0.24,1.10,-3.25,0.10,-0.15,1.04
401,-0.52,1.28,-3.19,0.11,-0.15,1.03
402,-0.53,1.54,-2.85,0.09,-0.14,1.04
403,-0.60,0.96,-3.18,0.10,-0.15,1.03
404,-0.58,0.44,-2.92,0.08,-0.15,1.04
405,-0.75,0.12,-3.07,0.09,-0.15,1.04
406,-0.66,-0.26,-2.64,0.08,-0.15,1.04
407,-0.64,-0.17,-2.67,0.07,-0.15,1.05
408,-1.27,-0.63,-2.11,0.07,-0.15,1.04
409,-1.62,-0.90,-1.89,0.08,-0.14,1.04
410,-2.05,-1.50,-1.79,0.07,-0.14,1.03
411,-2.18,-2.14,-1.76,0.08,-0.15,1.04
412,-2.40,-2.15,-1.25,0.09,-0.14,1.04
413,-2.84,-2.52,-0.98,0.09,-0.14,1.03
414,-3.33,-3.11,-1.08,0.09,-0.14,1.03
415,-3.63,-2.90,-1.21,0.09,-0.14,1.03
416,-4.06,-2.81,-1.16,0.10,-0.14,1.02
417,-4.31,-2.90,-0.98,0.10,-0.13,1.02
418,-4.73,-3.47,-0.56,0.10,-0.13,1.03
419,-5.88,-1.62,-0.05,0.11,-0.13,1.01
420,-6.17,-1.13,0.05,0.10,-0.14,1.00
421,-6.29,-2.00,0.43,0.10,-0.14,1.03
422,-6.90,-2.52,0.27,0.10,-0.14,1.00
423,-8.12,-5.40,0.05,0.10,-0.13,1.00
424,-10.06,-5.73,0.11,0.09,-0.14,0.98
425,-10.75,-0.87,-0.11,0.13,-0.12,0.98
426,-12.06,-3.66,-1.25,0.09,-0.14,0.97
427,-15.56,-4.60,-0.11,0.08,-0.14,0.93
428,-23.39,-7.56,2.12,0.06,-0.13,0.89
429,-34.38,-12.20,3.40,0.05,-0.14,0.81
430,-58.11,-12.69,8.76,0.04,-0.07,0.66
431,-85.28,-22.95,10.18,0.07,-0.07,0.56
432,-108.79,-34.23,8.20,0.11,-0.14,0.61
433,-127.74,-32.15,8.99,0.23,-0.18,0.62
434,-135.25,-41.56,3.73,0.11,-0.19,0.82
435,-123.80,-50.29,5.92,0.06,-0.17,0.99
436,-116.93,-60.50,9.39,0.05,-0.30,0.98
437,-108.63,-63.89,9.33,0.08,-0.21,1.09
438,-100.44,-44.37,8.61,0.19,-0.26,1.04
439,-90.32,-36.37,6.73,0.19,-0.27,1.05
440,-81.13,-23.33,5.24,0.20,-0.27,1.06
441,-74.23,-10.81,4.23,0.18,-0.29,1.06
442,-69.92,-3.59,5.15,0.15,-0.26,1.03
443,-66.81,2.09,4.23,0.17,-0.29,0.99
444,-67.31,7.04,5.74,0.15,-0.29,0.96
445,-72.35,5.82,7.10,0.12,-0.28,0.89
446,-80.17,4.20,9.82,0.10,-0.28,0.84
447,-87.36,2.34,11.98,0.09,-0.29,0.82
448,-95.60,2.96,14.23,0.14,-0.29,0.80
449,-100.34,1.15,15.45,0.13,-0.29,0.81
450,-104.49,-7.39,13.80,0.12,-0.29,0.80
451,-110.31,0.87,13.36,0.19,-0.30,0.74
452,-113.15,-7.30,13.48,0.11,-0.32,0.73
453,-119.60,-16.70,14.63,0.08,-0.32,0.69
454,-120.21,-3.51,17.25,0.15,-0.31,0.69
455,-120.52,-13.98,16.29,0.10,-0.31,0.74
456,-114.20,-7.57,15.98,0.17,-0.32,0.76
457,-104.55,-13.33,13.31,0.13,-0.36,0.73
458,-99.54,-17.33,10.56,0.14,-0.32,0.77
459,-93.53,-5.62,9.04,0.20,-0.37,0.73
460,-92.38,-5.95,7.54,0.14,-0.35,0.75
461,-88.17,-7.30,6.15,0.13,-0.37,0.71
462,-90.61,1.94,7.91,0.16,-0.36,0.67
463,-90.14,-4.02,7.28,0.12,-0.40,0.67
464,-89.92,4.72,9.08,0.16,-0.41,0.63
465,-91.73,1.82,10.05,0.13,-0.41,0.63
466,-95.18,0.31,10.63,0.14,-0.42,0.56
467,-99.25,2.34,12.46,0.15,-0.43,0.53
468,-101.57,-3.27,13.13,0.15,-0.44,0.55
469,-103.34,-4.98,11.19,0.19,-0.45,0.57
470,-104.89,-1.30,9.11,0.23,-0.47,0.55
471,-108.72,-4.53,6.78,0.21,-0.48,0.54
472,-110.24,-11.02,6.24,0.16,-0.50,0.52
473,-111.28,-13.45,6.64,0.19,-0.52,0.52
474,-110.95,-15.08,6.40,0.19,-0.52,0.55
475,-110.14,-19.34,5.62,0.17,-0.55,0.56
476,-111.16,-16.89,4.85,0.21,-0.58,0.51
477,-112.63,-18.95,4.08,0.15,-0.60,0.52
478,-114.35,-18.24,3.98,0.15,-0.61,0.49
479,-117.13,-14.79,5.66,0.13,-0.63,0.46
480,-122.20,-15.27,7.74,0.10,-0.63,0.41
481,-127.47,-9.82,10.34,0.12,-0.63,0.38
482,-131.18,-6.20,13.62,0.10,-0.65,0.36
483,-136.05,-6.66,16.14,0.11,-0.66,0.34
484,-140.63,-4.43,17.54,0.12,-0.67,0.31
485,-145.37,-5.47,17.27,0.12,-0.68,0.29
486,-149.30,-1.51,16.79,0.16,-0.71,0.26
487,-153.18,-2.96,16.02,0.14,-0.73,0.27
488,-154.56,-6.63,15.16,0.11,-0.74,0.24
489,-154.09,-6.35,14.53,0.11,-0.77,0.29
490,-150.23,-10.98,14.18,0.09,-0.78,0.32
491,-152.27,-11.25,15.15,0.12,-0.80,0.26
492,-151.76,-20.46,13.22,0.02,-0.89,0.32
493,-155.16,-17.69,14.06,0.10,-0.85,0.20
494,-157.83,-18.92,13.68,0.08,-0.84,0.19
495,-159.33,-18.84,13.54,0.12,-0.87,0.15
496,-163.89,-16.00,14.05,0.13,-0.87,0.08
497,-175.08,-12.73,15.11,0.14,-0.90,-0.03
498,-186.70,-17.66,14.34,0.12,-0.92,-0.07
499,-198.12,-23.40,14.37,0.11,-0.94,-0.12
500,-204.90,-19.89,13.27,0.16,-0.98,-0.14
501,-209.18,-16.41,10.40,0.19,-1.02,-0.12
502,-208.55,-19.16,5.97,0.14,-1.04,-0.01
503,-205.79,-27.15,3.47,0.10,-1.05,0.03
504,-196.82,-36.00,2.78,0.05,-1.08,0.04
505,-188.47,-35.80,4.50,0.06,-1.10,0.00
506,-182.58,-41.76,7.39,0.05,-1.13,-0.01
507,-177.33,-45.88,10.84,0.01,-1.16,-0.05
508,-178.24,-43.83,16.24,-0.02,-1.19,-0.20
509,-181.45,-47.34,22.31,-0.06,-1.19,-0.33
510,-195.33,-57.02,27.60,-0.09,-1.13,-0.47
511,-198.11,-63.79,33.44,-0.05,-1.18,-0.66
512,-207.74,-56.90,38.44,0.06,-1.14,-0.85
513,-216.58,-69.97,39.74,-0.04,-1.22,-0.87
514,-218.98,-90.14,42.67,-0.12,-1.30,-0.95
515,-207.01,-93.37,48.02,-0.05,-1.37,-0.93
516,-192.15,-105.85,50.47,-0.06,-1.40,-0.86
517,-185.25,-106.24,49.95,0.07,-1.55,-0.80
518,-182.27,-107.05,48.66,0.04,-1.70,-0.60
519,-195.39,-112.85,47.33,0.01,-1.74,-0.49
520,-208.87,-113.16,47.80,-0.01,-1.83,-0.31
521,-199.68,-119.82,50.37,0.09,-1.90,0.01
522,-238.46,-97.28,49.45,0.04,-1.89,-0.18
523,-264.61,-88.08,52.14,-0.13,-1.83,-0.11
524,-274.29,-74.31,56.58,-0.09,-1.91,-0.09
525,-274.44,-68.32,60.06,0.02,-1.88,0.00
