,gyro_x,gyro_y,gyro_z,acce_x,acce_y,acce_z
0,11.16,1.36,7.24,0.17,-0.18,0.99
1,12.34,2.64,7.44,0.17,-0.18,0.98
2,12.08,4.98,8.29,0.17,-0.18,0.97
3,11.91,6.98,8.66,0.16,-0.18,0.98
4,12.27,9.42,9.15,0.16,-0.18,0.98
5,11.88,11.42,9.19,0.17,-0.17,0.98
6,10.87,13.24,9.40,0.17,-0.17,0.99
7,9.65,14.15,9.30,0.16,-0.17,0.98
8,8.85,14.95,9.53,0.16,-0.16,0.99
9,7.71,14.52,9.15,0.16,-0.17,0.98
10,6.47,15.22,9.25,0.15,-0.17,0.98
11,5.83,16.15,9.48,0.16,-0.16,0.99
12,4.89,16.34,9.65,0.15,-0.16,1.00
13,4.66,15.04,10.06,0.14,-0.16,1.01
14,3.66,13.51,9.68,0.14,-0.16,1.01
15,2.08,11.86,10.02,0.15,-0.16,1.04
16,0.47,10.11,9.51,0.15,-0.16,1.04
17,-0.02,9.28,10.41,0.15,-0.15,1.07
18,-0.73,7.94,9.85,0.14,-0.15,1.08
19,-0.03,6.98,10.49,0.17,-0.16,1.09
20,0.40,7.39,10.00,0.19,-0.15,1.10
21,0.95,8.85,10.00,0.21,-0.14,1.12
22,0.92,11.08,9.69,0.21,-0.14,1.13
23,2.03,12.47,8.76,0.21,-0.14,1.11
24,2.34,10.70,7.60,0.20,-0.13,1.13
25,3.77,7.97,6.75,0.19,-0.13,1.11
26,3.68,12.90,6.20,0.24,-0.13,1.11
27,3.47,11.50,4.93,0.20,-0.14,1.11
28,4.37,12.44,5.02,0.20,-0.14,1.10
29,4.67,12.29,2.63,0.17,-0.13,1.10
30,5.56,12.35,3.37,0.18,-0.12,1.09
31,4.85,11.68,0.99,0.14,-0.13,1.09
32,4.96,11.28,1.97,0.16,-0.11,1.06
33,4.70,12.09,1.98,0.17,-0.11,1.05
34,4.96,13.50,7.56,0.20,-0.10,1.04
35,3.47,12.18,1.22,0.14,-0.12,1.04
36,3.73,10.50,0.41,0.15,-0.12,1.04
37,3.71,10.03,0.11,0.15,-0.12,1.03
38,3.60,9.07,0.26,0.11,-0.13,1.02
39,3.15,7.42,-1.07,0.12,-0.13,1.01
40,2.64,6.41,-0.84,0.11,-0.13,1.03
41,2.18,6.95,-0.78,0.11,-0.12,1.02
42,2.06,7.60,-0.99,0.11,-0.13,1.02
43,2.29,7.83,-1.01,0.10,-0.13,1.03
44,3.50,8.20,4.43,0.10,-0.13,1.04
45,2.98,6.05,-1.36,0.09,-0.14,1.05
46,3.30,4.27,-1.45,0.09,-0.13,1.05
47,3.88,2.64,-1.48,0.09,-0.13,1.04
48,4.05,1.74,-1.56,0.09,-0.14,1.06
49,4.35,1.05,-1.62,0.08,-0.13,1.04
50,4.32,1.11,-1.18,0.08,-0.13,1.04
51,4.17,1.02,-0.64,0.08,-0.13,1.02
52,4.15,0.66,-0.47,0.08,-0.13,1.02
53,4.02,-0.41,-0.44,0.07,-0.12,1.01
54,3.54,-1.24,-0.40,0.07,-0.13,0.99
55,3.04,-2.96,-0.26,0.07,-0.13,0.99
56,2.89,-5.28,-0.21,0.06,-0.12,0.99
57,2.52,-8.06,-0.27,0.07,-0.13,1.00
58,1.83,-10.37,0.08,0.07,-0.12,0.98
59,1.85,-12.20,-0.12,0.07,-0.12,0.98
60,1.51,-13.10,-0.26,0.07,-0.13,0.98
61,1.44,-13.85,0.12,0.07,-0.12,0.99
62,0.66,-14.00,0.69,0.06,-0.13,0.97
63,0.21,-13.88,1.40,0.08,-0.13,0.98
64,-0.15,-12.43,1.80,0.09,-0.13,0.99
65,-1.21,-10.84,2.46,0.10,-0.13,0.99
66,-1.42,-10.38,2.69,0.11,-0.14,0.99
67,-2.21,-9.76,2.32,0.11,-0.13,0.99
68,-3.05,-9.24,2.38,0.11,-0.12,0.99
69,-3.88,-9.80,1.77,0.11,-0.12,0.99
70,-4.00,-10.50,1.60,0.11,-0.13,0.99
71,-4.05,-11.79,1.83,0.10,-0.12,1.01
72,-4.31,-13.28,1.66,0.10,-0.12,1.01
73,-4.64,-13.15,1.82,0.09,-0.13,1.02
74,-4.99,-12.47,2.34,0.12,-0.12,1.01
75,-4.64,-12.23,2.69,0.12,-0.12,1.01
76,-3.95,-10.89,3.10,0.12,-0.13,1.02
77,-4.17,-9.34,2.53,0.14,-0.13,1.02
78,-4.96,-7.18,3.22,0.15,-0.13,1.02
79,-5.47,-5.60,2.23,0.16,-0.13,1.02
80,-6.06,-5.13,2.35,0.16,-0.13,1.01
81,-6.40,-5.39,1.80,0.16,-0.13,1.02
82,-6.63,-5.44,1.77,0.17,-0.14,1.01
83,-6.44,-6.38,1.56,0.15,-0.13,1.02
84,-6.99,-7.30,0.96,0.15,-0.13,1.02
85,-6.96,-7.22,0.46,0.15,-0.13,1.04
86,-7.60,-7.08,0.76,0.15,-0.13,1.02
87,-7.54,-6.70,0.95,0.15,-0.13,1.04
88,-7.33,-5.97,1.05,0.15,-0.14,1.03
89,-6.37,-5.13,1.60,0.16,-0.15,1.03
90,-8.11,-2.90,1.21,0.17,-0.15,1.04
91,-8.98,-0.81,1.02,0.17,-0.16,1.04
92,-8.11,0.58,0.90,0.16,-0.15,1.04
93,-7.71,0.81,0.63,0.17,-0.16,1.05
94,-8.20,1.92,0.37,0.15,-0.15,1.04
95,-7.51,0.96,0.46,0.14,-0.15,1.03
96,-7.82,0.67,0.06,0.14,-0.16,1.05
97,-6.40,0.26,0.58,0.13,-0.17,1.05
98,-6.14,-0.32,0.61,0.13,-0.16,1.06
99,-5.39,-0.02,0.96,0.14,-0.17,1.05
100,-5.50,1.10,1.31,0.13,-0.17,1.06
101,-5.47,1.68,2.56,0.14,-0.16,1.06
102,-5.01,2.40,2.58,0.14,-0.17,1.05
103,-4.34,3.85,3.44,0.16,-0.17,1.05
104,-5.33,5.11,3.50,0.16,-0.15,1.05
105,-4.15,6.47,3.42,0.17,-0.17,1.04
106,-3.94,7.76,3.28,0.17,-0.17,1.03
107,-3.53,8.76,3.27,0.18,-0.16,1.03
108,-3.44,9.24,2.60,0.17,-0.17,1.03
109,-1.51,9.34,2.38,0.18,-0.19,1.01
110,-2.87,8.40,1.89,0.17,-0.17,1.03
111,-1.73,7.39,1.98,0.15,-0.17,1.02
112,-2.12,6.50,2.08,0.14,-0.18,1.02
113,-2.17,5.60,2.26,0.13,-0.17,1.02
114,-0.79,5.62,2.31,0.14,-0.19,1.01
115,-0.41,7.02,2.61,0.14,-0.19,1.01
116,-0.70,7.47,3.15,0.13,-0.18,1.01
117,-0.90,7.33,3.19,0.13,-0.17,1.03
118,-0.18,6.89,3.11,0.14,-0.18,1.02
119,-0.75,7.98,3.54,0.13,-0.17,1.02
120,-0.44,8.46,3.91,0.13,-0.17,1.02
121,-0.12,7.94,3.86,0.14,-0.18,1.03
122,-0.29,7.33,3.57,0.14,-0.17,1.03
123,0.06,5.71,2.92,0.13,-0.17,1.04
124,1.27,4.23,2.40,0.14,-0.18,1.03
125,2.26,3.95,2.49,0.14,-0.18,1.04
126,2.34,3.66,2.17,0.13,-0.17,1.05
127,3.05,2.78,2.26,0.13,-0.18,1.05
128,2.72,1.88,1.89,0.13,-0.17,1.05
129,2.43,0.84,1.85,0.12,-0.17,1.03
130,2.32,0.58,1.76,0.13,-0.17,1.03
131,1.94,1.19,2.09,0.13,-0.18,1.02
132,2.20,2.35,2.17,0.14,-0.17,1.03
133,2.40,2.87,2.21,0.13,-0.17,1.03
134,2.29,3.11,2.43,0.13,-0.17,1.04
135,2.98,3.15,2.63,0.12,-0.17,1.02
136,2.69,3.19,2.38,0.12,-0.17,1.05
137,3.57,2.34,2.84,0.12,-0.17,1.04
138,3.25,1.86,2.79,0.12,-0.16,1.05
139,3.01,1.33,2.56,0.12,-0.17,1.04
140,4.14,0.03,2.63,0.12,-0.16,1.04
141,3.92,-1.48,2.27,0.12,-0.17,1.04
142,4.12,-2.63,1.95,0.13,-0.17,1.03
143,5.45,-2.35,1.82,0.13,-0.17,1.03
144,6.17,-1.69,1.79,0.14,-0.16,1.05
145,6.38,-2.26,1.62,0.13,-0.17,1.04
146,5.85,-2.34,1.37,0.13,-0.17,1.04
147,5.54,-2.46,0.95,0.13,-0.16,1.03
148,5.27,-2.00,1.05,0.13,-0.16,1.03
149,4.98,-1.60,1.02,0.13,-0.17,1.03
150,4.49,-1.98,1.18,0.12,-0.16,1.03
151,4.05,-1.40,1.13,0.12,-0.16,1.04
152,3.39,-2.67,1.53,0.12,-0.16,1.04
153,3.31,-4.23,1.36,0.12,-0.15,1.04
154,2.79,-4.21,1.47,0.13,-0.17,1.04
155,4.60,-5.73,1.56,0.12,-0.17,1.04
156,5.36,-3.36,1.66,0.13,-0.17,1.04
157,5.13,-2.23,2.23,0.13,-0.16,1.05
158,4.05,-2.49,2.14,0.13,-0.16,1.05
159,3.62,-1.24,1.65,0.14,-0.16,1.05
160,3.40,-1.07,1.60,0.13,-0.16,1.05
161,3.30,-1.30,1.10,0.13,-0.16,1.04
162,3.50,-1.74,0.98,0.13,-0.16,1.04
163,3.88,-2.35,0.96,0.13,-0.15,1.03
164,3.33,-3.04,0.95,0.13,-0.15,1.04
165,3.48,-3.97,0.98,0.13,-0.15,1.04
166,3.47,-4.17,1.08,0.14,-0.15,1.03
167,2.56,-3.65,1.11,0.13,-0.15,1.03
168,2.18,-3.60,1.08,0.13,-0.15,1.03
169,1.95,-3.71,0.92,0.13,-0.16,1.03
170,1.53,-3.16,0.52,0.14,-0.15,1.04
171,3.19,-0.89,0.98,0.16,-0.16,1.06
172,2.08,-2.75,0.49,0.14,-0.15,1.06
173,1.33,-1.53,0.41,0.14,-0.15,1.04
174,0.90,0.09,0.52,0.13,-0.15,1.05
175,0.96,1.13,0.31,0.14,-0.16,1.05
176,1.08,1.21,0.17,0.12,-0.15,1.04
177,1.07,0.56,0.21,0.12,-0.15,1.03
178,0.82,-0.38,0.37,0.11,-0.16,1.03
179,0.12,-2.14,0.69,0.12,-0.14,1.02
180,-0.79,-2.21,0.67,0.11,-0.14,1.01
181,-1.07,-0.96,1.08,0.12,-0.15,1.02
182,-1.82,0.61,1.53,0.12,-0.15,1.02
183,-2.32,1.98,1.77,0.13,-0.15,1.02
184,-1.45,2.70,1.60,0.12,-0.15,1.02
185,-1.80,2.72,1.47,0.14,-0.15,1.02
186,-2.31,2.79,1.15,0.13,-0.15,1.02
187,-2.72,2.17,1.42,0.12,-0.16,1.01
188,-3.30,1.22,1.25,0.12,-0.15,1.02
189,-3.53,-0.08,0.95,0.12,-0.16,1.03
190,-3.82,-1.04,0.60,0.12,-0.16,1.04
191,-3.80,-1.74,0.72,0.13,-0.15,1.04
192,-3.92,-0.93,0.72,0.13,-0.16,1.05
193,-3.45,-0.69,0.52,0.12,-0.17,1.04
194,-3.85,0.96,0.92,0.12,-0.16,1.05
195,-3.56,1.54,0.82,0.12,-0.16,1.05
196,-4.02,2.23,1.27,0.13,-0.17,1.04
197,-4.41,3.01,1.51,0.12,-0.16,1.05
198,-4.20,3.65,1.74,0.12,-0.15,1.04
199,-4.58,3.60,1.66,0.12,-0.16,1.03
200,-5.05,2.56,1.68,0.12,-0.15,1.04
201,-4.78,1.88,1.37,0.12,-0.15,1.03
202,-4.58,1.39,1.45,0.12,-0.16,1.01
203,-5.21,0.75,1.85,0.12,-0.15,1.02
204,-5.40,0.37,2.27,0.12,-0.16,1.02
205,-6.06,-0.47,2.17,0.13,-0.16,1.00
206,-6.98,-1.11,1.88,0.14,-0.15,1.02
207,-7.01,-1.10,1.56,0.15,-0.15,1.02
208,-6.70,-0.55,0.99,0.15,-0.17,1.02
209,-7.27,0.61,0.63,0.16,-0.15,1.03
210,-7.71,1.39,0.21,0.14,-0.17,1.04
211,-7.08,0.72,-0.40,0.14,-0.17,1.04
212,-7.33,0.15,-1.02,0.13,-0.17,1.04
213,-6.84,-0.82,-1.19,0.11,-0.16,1.04
214,-6.50,-0.98,-0.78,0.11,-0.17,1.04
215,-5.62,-1.21,-0.29,0.11,-0.17,1.04
216,-5.94,-2.15,-0.34,0.12,-0.16,1.04
217,-4.85,-3.45,0.15,0.12,-0.18,1.05
218,-4.79,-2.73,0.34,0.13,-0.17,1.04
219,-4.72,-2.09,0.47,0.14,-0.17,1.03
220,-4.26,-0.55,0.58,0.14,-0.17,1.02
221,-3.44,0.05,0.84,0.14,-0.18,1.03
222,-3.98,0.21,0.56,0.15,-0.17,1.03
223,-3.95,0.09,0.34,0.15,-0.17,1.03
224,-2.53,0.98,0.47,0.16,-0.19,1.03
225,-4.29,0.14,0.40,0.15,-0.16,1.04
226,-4.12,-1.16,-0.24,0.15,-0.17,1.04
227,-2.41,-1.36,-0.32,0.14,-0.18,1.04
228,-2.49,-1.05,-0.73,0.13,-0.18,1.03
229,-2.46,-2.40,-0.69,0.12,-0.17,1.04
230,-1.56,-2.81,-0.66,0.11,-0.19,1.05
231,-1.22,-2.43,-0.11,0.12,-0.19,1.04
232,-1.08,-2.15,0.35,0.11,-0.18,1.05
233,-0.53,-1.89,0.61,0.12,-0.19,1.05
234,-0.11,-1.63,0.98,0.11,-0.19,1.05
235,0.03,-2.09,1.19,0.11,-0.18,1.05
236,0.56,-2.40,1.53,0.12,-0.18,1.04
237,1.36,-2.34,1.80,0.12,-0.19,1.05
238,1.50,-2.43,2.00,0.12,-0.18,1.04
239,1.74,-2.31,2.21,0.13,-0.18,1.04
240,2.29,-2.11,1.95,0.13,-0.18,1.03
241,2.29,-1.56,1.92,0.14,-0.18,1.04
242,2.69,-1.36,1.74,0.14,-0.18,1.03
243,3.08,-0.82,1.50,0.13,-0.18,1.03
244,2.99,-0.67,1.57,0.14,-0.17,1.03
245,3.28,-0.81,1.40,0.13,-0.17,1.03
246,3.44,-1.07,1.63,0.13,-0.17,1.02
247,3.63,-1.39,1.40,0.13,-0.17,1.03
248,3.86,-2.40,0.96,0.13,-0.17,1.04
249,3.91,-3.21,0.98,0.14,-0.17,1.04
250,3.95,-4.02,1.27,0.12,-0.17,1.04
251,3.79,-3.85,1.62,0.12,-0.17,1.03
252,3.89,-3.25,2.14,0.14,-0.17,1.03
253,3.63,-2.38,2.06,0.13,-0.16,1.04
254,3.74,-2.02,2.23,0.14,-0.17,1.04
255,4.12,-2.09,2.18,0.15,-0.17,1.04
256,4.06,-1.77,1.97,0.14,-0.16,1.04
257,4.85,-1.04,2.26,0.14,-0.18,1.02
258,4.85,-1.77,2.40,0.14,-0.17,1.04
259,4.75,-2.61,2.26,0.14,-0.17,1.03
260,5.37,-2.35,2.23,0.15,-0.17,1.04
261,5.44,-2.08,2.24,0.14,-0.17,1.03
262,5.18,-0.99,2.34,0.15,-0.16,1.03
263,5.18,0.31,2.76,0.15,-0.17,1.03
264,4.29,2.15,2.64,0.15,-0.17,1.03
265,4.34,2.92,2.61,0.14,-0.16,1.03
266,4.24,3.11,2.40,0.15,-0.17,1.02
267,4.11,2.81,2.27,0.15,-0.16,1.03
268,3.89,2.31,2.11,0.13,-0.17,1.03
269,3.48,1.40,2.14,0.14,-0.16,1.03
270,3.94,0.60,2.21,0.14,-0.16,1.03
271,3.53,0.06,1.88,0.15,-0.16,1.04
272,3.89,-0.02,1.95,0.14,-0.17,1.03
273,3.86,0.29,1.82,0.15,-0.16,1.04
274,4.00,0.95,1.59,0.14,-0.17,1.04
275,3.88,1.07,1.73,0.14,-0.17,1.04
276,3.10,1.60,1.69,0.13,-0.16,1.05
277,2.95,1.86,1.77,0.14,-0.16,1.03
278,3.11,2.32,2.18,0.12,-0.17,1.02
279,2.15,2.98,2.31,0.13,-0.16,1.03
280,1.94,2.55,2.52,0.13,-0.17,1.03
281,1.97,2.05,2.56,0.14,-0.17,1.03
282,1.33,1.95,2.66,0.14,-0.16,1.04
283,0.92,3.37,2.96,0.14,-0.16,1.04
284,0.78,3.68,2.90,0.14,-0.15,1.04
285,1.31,2.72,2.78,0.14,-0.16,1.05
286,1.62,2.47,2.44,0.14,-0.17,1.04
287,1.68,2.47,2.02,0.15,-0.15,1.05
288,1.73,2.34,1.66,0.15,-0.16,1.05
289,1.71,1.56,1.33,0.13,-0.16,1.04
290,1.51,1.66,1.36,0.14,-0.16,1.05
291,1.68,2.12,1.50,0.14,-0.15,1.04
292,1.63,0.99,1.53,0.14,-0.16,1.04
293,1.45,0.32,1.54,0.14,-0.16,1.04
294,1.47,0.47,1.57,0.15,-0.16,1.05
295,1.24,1.04,1.68,0.14,-0.16,1.03
296,0.90,2.17,1.71,0.15,-0.16,1.04
297,0.61,2.82,1.59,0.16,-0.16,1.03
298,0.26,2.90,1.24,0.16,-0.16,1.04
299,-0.11,3.30,0.81,0.16,-0.16,1.04
300,-0.20,3.22,0.75,0.15,-0.15,1.03
301,-0.09,2.09,0.37,0.13,-0.16,1.04
302,-0.21,1.42,0.40,0.13,-0.16,1.04
303,-0.17,0.50,0.32,0.13,-0.16,1.04
304,-0.63,-0.90,0.55,0.12,-0.16,1.03
305,-0.75,-1.24,0.75,0.12,-0.16,1.03
306,-0.60,-1.37,0.63,0.12,-0.16,1.04
307,-0.63,-0.34,0.95,0.14,-0.15,1.05
308,-0.41,-0.64,0.55,0.14,-0.16,1.05
309,-0.14,0.12,0.50,0.15,-0.15,1.03
310,0.05,0.12,0.49,0.13,-0.15,1.04
311,0.15,0.18,0.61,0.14,-0.16,1.04
312,-0.05,-0.03,0.58,0.14,-0.16,1.04
313,-0.29,0.09,0.38,0.15,-0.15,1.04
314,-0.43,0.79,0.23,0.15,-0.17,1.03
315,-0.61,0.78,0.03,0.14,-0.16,1.04
316,-0.79,1.13,-0.18,0.14,-0.16,1.04
317,-0.47,0.81,-0.24,0.13,-0.16,1.04
318,-0.41,-0.37,-0.49,0.12,-0.15,1.04
319,-0.35,-0.60,-0.46,0.12,-0.16,1.03
320,-0.29,-1.34,-0.08,0.11,-0.16,1.03
321,-0.43,-2.29,0.03,0.11,-0.15,1.02
322,-0.50,-3.69,0.17,0.11,-0.16,1.02
323,-0.98,-4.67,0.40,0.12,-0.16,1.01
324,-1.47,-5.62,0.67,0.12,-0.15,1.02
325,-1.88,-5.47,0.93,0.13,-0.16,1.03
326,-2.18,-4.29,0.93,0.13,-0.16,1.03
327,-2.55,-2.18,0.84,0.14,-0.15,1.03
328,-2.17,-0.93,0.92,0.15,-0.16,1.04
329,-2.37,-0.70,0.58,0.15,-0.16,1.04
330,-2.35,-0.44,0.34,0.14,-0.16,1.04
331,-2.08,-1.24,-0.18,0.16,-0.17,1.04
332,-2.08,-2.82,-0.72,0.14,-0.16,1.04
333,-2.21,-4.35,-0.92,0.14,-0.15,1.05
334,-1.98,-4.84,-1.02,0.12,-0.17,1.04
335,-2.11,-5.13,-0.96,0.12,-0.16,1.03
336,-1.83,-5.57,-0.82,0.11,-0.16,1.04
337,-2.26,-6.73,-0.72,0.11,-0.16,1.04
338,-2.24,-6.26,-0.12,0.12,-0.17,1.04
339,-2.11,-5.15,0.20,0.13,-0.17,1.04
340,-1.92,-4.93,0.58,0.12,-0.17,1.05
341,-1.97,-4.20,0.87,0.13,-0.17,1.04
342,-1.83,-2.79,1.11,0.13,-0.16,1.03
343,-1.04,-2.37,1.37,0.14,-0.17,1.04
344,-1.22,-1.13,1.45,0.14,-0.17,1.03
345,-1.36,-0.53,1.30,0.14,-0.17,1.02
346,-1.39,0.06,1.01,0.14,-0.17,1.02
347,-1.39,-0.34,1.34,0.14,-0.16,1.01
348,-1.63,-0.73,1.04,0.14,-0.15,1.02
349,-1.97,-1.45,0.38,0.14,-0.16,1.01
350,-1.71,-2.26,0.46,0.15,-0.16,1.02
351,-1.51,-1.73,0.52,0.15,-0.16,1.01
352,-1.39,-0.98,0.38,0.15,-0.17,1.01
353,-1.79,-1.31,0.75,0.13,-0.16,1.03
354,-1.85,-1.66,0.79,0.13,-0.16,1.02
355,-1.79,-0.46,0.84,0.15,-0.17,1.02
356,-2.41,0.79,0.84,0.15,-0.16,1.03
357,-2.34,2.61,1.11,0.16,-0.17,1.03
358,-1.80,2.79,1.10,0.16,-0.17,1.04
359,-1.63,2.78,0.78,0.15,-0.17,1.03
360,-1.69,1.76,0.96,0.15,-0.17,1.04
361,-1.57,1.08,0.38,0.15,-0.16,1.04
362,-1.27,-0.03,0.24,0.15,-0.17,1.03
363,-0.76,-0.67,-0.20,0.14,-0.16,1.03
364,-0.72,-0.89,-0.24,0.14,-0.17,1.04
365,-0.92,-0.38,0.20,0.14,-0.17,1.03
366,-0.92,0.05,0.44,0.13,-0.17,1.03
367,-1.25,0.43,1.13,0.12,-0.17,1.03
368,-0.98,1.27,1.34,0.13,-0.17,1.03
369,-1.02,2.47,1.88,0.14,-0.17,1.03
370,-0.55,2.24,2.18,0.13,-0.17,1.03
371,-0.53,2.61,2.15,0.14,-0.17,1.03
372,-0.93,3.19,2.27,0.14,-0.17,1.03
373,-0.37,3.36,2.49,0.13,-0.17,1.04
374,0.23,4.37,2.66,0.14,-0.18,1.04
375,0.58,5.01,2.67,0.15,-0.17,1.04
376,1.11,4.52,2.18,0.15,-0.17,1.04
377,1.51,3.77,2.12,0.14,-0.17,1.04
378,1.40,2.53,1.83,0.14,-0.17,1.03
379,1.50,2.23,1.56,0.14,-0.17,1.03
380,1.60,2.24,1.53,0.14,-0.18,1.03
381,1.53,2.20,1.34,0.13,-0.17,1.03
382,1.83,1.71,1.28,0.14,-0.17,1.03
383,2.08,1.28,1.68,0.13,-0.16,1.02
384,1.73,1.44,2.15,0.13,-0.16,1.03
385,1.44,0.95,2.24,0.13,-0.17,1.01
386,1.37,0.21,2.29,0.13,-0.17,1.03
387,1.47,0.52,2.44,0.15,-0.16,1.03
388,1.89,0.99,2.34,0.15,-0.17,1.04
389,2.27,1.51,2.02,0.15,-0.16,1.04
390,2.99,1.53,2.03,0.15,-0.17,1.05
391,3.27,1.74,1.85,0.15,-0.17,1.05
392,3.31,1.83,1.65,0.14,-0.16,1.04
393,3.69,1.18,1.28,0.14,-0.17,1.04
394,3.69,0.20,1.50,0.14,-0.16,1.03
395,3.44,-0.82,1.16,0.14,-0.16,1.03
396,3.36,-1.10,1.05,0.14,-0.17,1.02
397,2.66,-1.80,0.66,0.14,-0.16,1.03
398,2.70,-1.65,0.96,0.14,-0.17,1.03
399,2.52,-1.18,0.79,0.15,-0.17,1.04
400,2.26,-0.58,1.05,0.14,-0.16,1.04
401,2.38,0.00,1.31,0.13,-0.17,1.04
402,3.24,0.23,0.93,0.14,-0.17,1.05
403,2.93,0.75,0.96,0.14,-0.16,1.04
404,3.05,0.12,0.99,0.13,-0.17,1.05
405,3.42,-0.08,0.90,0.13,-0.17,1.05
406,3.66,-1.33,0.64,0.13,-0.15,1.05
407,3.80,-3.04,0.76,0.13,-0.17,1.05
408,4.09,-4.40,0.66,0.14,-0.16,1.06
409,4.12,-4.96,0.20,0.14,-0.16,1.05
410,4.29,-4.52,0.34,0.13,-0.16,1.04
411,3.56,-3.48,0.67,0.15,-0.15,1.04
412,3.25,-2.35,0.78,0.15,-0.17,1.04
413,2.98,-2.00,0.99,0.15,-0.16,1.03
414,3.13,-1.60,0.85,0.15,-0.16,1.03
415,3.25,-0.49,0.58,0.16,-0.17,1.03
416,3.50,0.43,0.26,0.15,-0.16,1.04
417,3.69,0.95,-0.02,0.15,-0.16,1.04
418,4.14,0.21,-0.09,0.14,-0.17,1.03
419,4.02,-0.52,-0.02,0.14,-0.16,1.03
420,3.85,-1.74,0.00,0.12,-0.16,1.03
421,3.33,-2.50,0.02,0.13,-0.15,1.03
422,3.24,-2.34,0.27,0.13,-0.16,1.03
423,3.97,-1.83,0.52,0.13,-0.17,1.03
424,3.97,-1.65,0.60,0.13,-0.17,1.04
425,4.52,-1.30,0.50,0.14,-0.16,1.04
426,4.32,-0.06,0.24,0.15,-0.16,1.04
427,4.34,2.43,0.32,0.16,-0.15,1.04
428,4.31,4.82,0.34,0.16,-0.16,1.04
429,4.67,7.21,0.20,0.16,-0.16,1.06
430,4.24,8.46,0.27,0.14,-0.15,1.05
431,4.11,8.44,0.17,0.14,-0.15,1.04
432,4.31,8.58,-0.14,0.13,-0.16,1.04
433,4.08,7.27,0.70,0.12,-0.15,1.03
434,3.11,4.14,0.18,0.12,-0.16,1.03
435,2.69,1.45,0.24,0.12,-0.14,1.03
436,1.82,0.08,-0.14,0.12,-0.14,1.02
437,1.77,-2.11,-0.44,0.11,-0.14,1.03
438,1.56,-3.36,-0.52,0.12,-0.15,1.04
439,1.10,-3.28,-0.02,0.12,-0.14,1.03
440,0.64,-2.55,-0.02,0.13,-0.15,1.03
441,0.52,-3.21,-0.27,0.13,-0.15,1.03
442,0.66,-2.69,-0.34,0.14,-0.15,1.03
443,0.44,-1.83,-0.46,0.13,-0.15,1.03
444,0.34,-1.69,-0.06,0.12,-0.15,1.01
445,0.27,-2.03,0.21,0.11,-0.15,1.01
446,-0.50,-2.37,0.66,0.12,-0.15,1.00
447,-1.27,-3.54,1.02,0.11,-0.14,1.00
448,-1.54,-4.50,0.92,0.12,-0.15,1.00
449,-1.86,-4.38,0.95,0.14,-0.15,1.02
450,-1.34,-5.25,1.18,0.13,-0.15,1.03
451,-1.25,-5.44,0.92,0.14,-0.16,1.04
452,-1.21,-5.11,0.93,0.14,-0.15,1.05
453,-0.52,-2.96,0.78,0.15,-0.16,1.05
454,-0.84,0.02,0.99,0.15,-0.16,1.06
455,-0.63,1.98,1.04,0.14,-0.16,1.04
456,-1.33,2.66,1.15,0.15,-0.16,1.04
457,-1.37,2.99,1.01,0.15,-0.16,1.04
458,-1.37,2.76,1.01,0.14,-0.16,1.05
459,-1.10,1.89,1.54,0.12,-0.16,1.03
460,-0.89,1.05,0.63,0.11,-0.16,1.04
461,-0.82,-0.26,1.28,0.12,-0.16,1.03
462,-0.99,-1.11,1.48,0.12,-0.15,1.02
463,-1.18,-1.39,1.94,0.13,-0.15,1.04
464,-1.30,-2.06,1.98,0.14,-0.16,1.04
465,-0.93,-2.69,1.76,0.15,-0.16,1.04
466,-1.10,-2.20,1.83,0.15,-0.15,1.04
467,-1.48,-1.56,2.00,0.16,-0.16,1.04
468,-1.30,-1.25,2.09,0.15,-0.15,1.03
469,-1.22,-0.11,2.00,0.15,-0.15,1.03
470,-1.04,0.08,1.62,0.16,-0.14,1.03
471,-1.19,-1.74,1.21,0.15,-0.14,1.03
472,-1.68,-3.63,0.76,0.16,-0.15,1.02
473,-1.73,-4.43,0.34,0.15,-0.15,1.01
474,-1.57,-4.98,0.11,0.15,-0.15,1.02
475,-1.97,-5.66,-0.05,0.15,-0.15,1.03
476,-2.11,-7.40,-0.46,0.15,-0.15,1.03
477,-2.05,-7.18,-0.23,0.15,-0.14,1.01
478,-1.86,-5.13,-0.09,0.15,-0.14,1.01
479,-1.68,-3.07,0.08,0.15,-0.14,1.02
480,-0.98,-2.76,-0.18,0.15,-0.15,1.02
481,-1.34,-0.92,0.18,0.15,-0.14,1.02
482,-1.42,-0.98,0.32,0.14,-0.14,1.00
483,-2.00,-1.88,0.37,0.14,-0.14,1.00
484,-1.86,-3.16,0.18,0.13,-0.15,1.00
485,-2.08,-5.18,0.14,0.13,-0.14,1.00
486,-1.95,-7.63,0.23,0.12,-0.14,1.01
487,-1.69,-6.34,0.43,0.13,-0.15,1.00
488,-2.00,-6.46,0.69,0.14,-0.14,1.01
489,-1.19,-8.46,0.44,0.14,-0.15,1.02
490,-0.18,-7.80,0.38,0.15,-0.16,1.02
491,-0.95,-5.05,0.66,0.15,-0.15,1.01
492,-1.36,-4.47,0.84,0.15,-0.14,1.00
493,-1.25,-4.23,1.07,0.15,-0.15,1.01
494,-1.31,-4.35,1.33,0.14,-0.15,0.99
495,-1.11,-10.73,0.38,0.13,-0.14,1.00
496,-2.32,-2.98,1.56,0.17,-0.13,0.99
497,-3.25,-7.68,0.76,0.15,-0.14,1.00
498,-2.03,-8.40,0.06,0.14,-0.15,1.00
499,-3.22,-7.54,0.06,0.15,-0.14,1.01
500,-2.58,-9.68,0.05,0.13,-0.15,1.01
501,-2.26,-10.09,0.17,0.13,-0.16,1.01
502,-1.53,-11.04,0.18,0.13,-0.15,1.01
503,-1.73,-11.98,0.26,0.13,-0.15,1.00
504,-2.15,-13.33,0.52,0.12,-0.15,1.00
505,-1.69,-14.08,0.98,0.12,-0.16,1.00
506,-1.30,-13.98,1.39,0.13,-0.15,0.99
507,-1.42,-14.53,1.88,0.13,-0.16,0.98
508,-1.54,-15.54,2.17,0.12,-0.15,0.98
509,-1.74,-16.12,3.02,0.12,-0.14,0.96
510,-3.50,-13.89,4.00,0.12,-0.14,0.95
511,-7.82,-9.68,5.47,0.14,-0.14,0.94
512,-5.71,-15.57,6.81,0.12,-0.14,0.98
513,-3.27,-22.14,6.31,0.12,-0.16,0.96
514,-4.49,-22.20,7.54,0.12,-0.13,0.94
515,-7.04,-21.27,8.09,0.13,-0.14,0.91
516,-10.14,-21.79,8.98,0.11,-0.13,0.91
517,-10.29,-26.89,10.70,0.11,-0.13,0.89
518,-12.73,-30.23,10.96,0.08,-0.12,0.87
519,-13.83,-34.95,14.14,0.05,-0.13,0.86
520,-13.16,-41.37,15.31,0.02,-0.13,0.85
521,-12.76,-49.57,18.21,-0.00,-0.13,0.84
522,-14.46,-53.25,21.34,0.02,-0.13,0.81
523,-17.74,-55.36,24.49,0.04,-0.13,0.77
524,-20.95,-53.27,26.99,0.09,-0.14,0.71
525,-27.86,-59.91,28.58,0.11,-0.12,0.74
526,-31.08,-64.60,29.65,0.11,-0.13,0.72
527,-33.13,-68.96,30.61,0.12,-0.15,0.72
528,-36.89,-71.83,31.63,0.14,-0.15,0.69
529,-40.46,-73.50,32.76,0.14,-0.13,0.66
530,-44.09,-76.20,34.29,0.13,-0.13,0.63
531,-46.70,-82.56,35.73,0.11,-0.14,0.60
532,-50.84,-90.79,37.74,0.11,-0.15,0.55
533,-54.66,-98.47,42.03,0.09,-0.14,0.49
534,-58.58,-104.61,44.55,0.08,-0.14,0.44
535,-65.92,-105.30,51.89,0.12,-0.14,0.42
536,-71.74,-106.58,54.35,0.10,-0.17,0.34
537,-77.62,-109.76,58.43,0.10,-0.18,0.32
538,-78.17,-115.02,61.97,0.13,-0.21,0.31
539,-83.01,-118.14,66.21,0.16,-0.21,0.29
540,-88.15,-119.77,67.88,0.22,-0.23,0.24
541,-98.08,-118.09,68.75,0.27,-0.24,0.27
542,-102.24,-118.20,70.29,0.29,-0.28,0.23
543,-106.92,-117.53,71.39,0.32,-0.31,0.25
544,-107.27,-126.58,70.40,0.32,-0.35,0.23
545,-108.03,-137.13,70.44,0.34,-0.39,0.23
546,-112.03,-143.30,69.50,0.38,-0.42,0.23
547,-118.09,-146.70,67.73,0.41,-0.47,0.24
548,-122.70,-146.44,67.27,0.42,-0.52,0.25
549,-127.07,-145.73,67.66,0.40,-0.56,0.28
550,-126.44,-145.95,69.74,0.37,-0.60,0.28
551,-129.13,-145.69,69.62,0.37,-0.64,0.30
552,-132.26,-142.15,72.69,0.36,-0.68,0.31
553,-129.80,-140.72,77.82,0.34,-0.71,0.35
554,-123.71,-136.40,82.85,0.34,-0.73,0.35
555,-119.47,-129.50,88.38,0.34,-0.77,0.35
556,-117.44,-123.57,94.27,0.34,-0.78,0.30
557,-119.66,-122.50,99.57,0.34,-0.79,0.23
558,-114.35,-127.10,102.99,0.30,-0.87,0.09
559,-123.19,-121.71,109.21,0.35,-0.87,0.08
560,-127.45,-121.02,114.21,0.38,-0.89,0.02
561,-131.80,-115.97,117.30,0.39,-0.91,-0.01
562,-163.15,-97.53,120.03,0.79,-0.83,-0.74
563,-150.12,-137.86,108.95,0.36,-0.85,-0.17
564,-151.97,-152.29,110.55,0.14,-0.95,-0.36
565,-165.37,-161.94,113.59,0.22,-1.05,-0.32
566,-171.24,-179.89,117.45,0.18,-1.16,-0.21
567,-171.11,-194.84,122.89,0.22,-1.22,-0.11
568,-175.80,-195.51,128.82,0.32,-1.29,-0.03
569,-184.64,-173.44,137.24,0.47,-1.27,0.10
570,-184.20,-153.11,142.18,0.49,-1.35,0.21
571,-173.28,-150.02,143.79,0.50,-1.35,0.25
572,-165.83,-149.48,146.66,0.54,-1.32,0.22
573,-161.13,-138.87,150.72,0.56,-1.26,0.15
574,-162.87,-116.11,156.46,0.53,-1.27,0.09
575,-166.50,-94.15,161.54,0.56,-1.28,-0.03
576,-167.42,-80.32,165.21,0.51,-1.31,-0.12
577,-170.03,-73.62,166.66,0.51,-1.35,-0.23
578,-173.63,-74.90,163.65,0.56,-1.38,-0.33
579,-177.10,-78.24,160.11,0.57,-1.43,-0.38
580,-182.11,-85.60,156.03,0.57,-1.44,-0.43
581,-188.82,-90.24,151.62,0.57,-1.45,-0.44
582,-192.56,-91.86,146.02,0.57,-1.52,-0.41
583,-203.07,-94.60,144.26,0.52,-1.54,-0.35
584,-211.66,-95.95,144.35,0.49,-1.55,-0.26
585,-218.61,-96.47,146.49,0.47,-1.57,-0.19
586,-225.37,-89.45,149.30,0.41,-1.62,-0.10
587,-227.88,-82.11,153.51,0.38,-1.66,-0.05
588,-228.53,-70.52,159.47,0.34,-1.66,-0.03
589,-226.27,-56.34,165.02,0.31,-1.68,-0.02
590,-223.88,-43.76,169.69,0.27,-1.71,-0.03
591,-215.91,-43.68,170.60,0.28,-1.73,-0.06
592,-214.44,-31.80,166.78,0.35,-1.76,-0.13
593,-213.91,-18.12,159.65,0.41,-1.80,-0.16
594,-217.56,-6.60,150.00,0.45,-1.79,-0.16
595,-221.39,3.62,140.75,0.45,-1.78,-0.13
596,-222.09,12.75,132.75,0.45,-1.75,-0.08
597,-217.95,21.65,123.71,0.43,-1.72,-0.03
598,-206.08,18.76,116.12,0.37,-1.68,0.02
599,-196.89,13.77,111.79,0.33,-1.64,0.04
600,-189.73,10.82,109.51,0.33,-1.59,0.04
601,-179.65,1.37,107.31,0.33,-1.56,0.05
602,-168.09,-1.45,105.33,0.38,-1.52,0.04
603,-157.53,-1.42,100.37,0.44,-1.51,0.03
604,-145.22,-4.89,93.98,0.48,-1.50,-0.02
605,-132.78,-8.92,86.43,0.48,-1.48,-0.06
606,-120.37,-11.10,79.91,0.46,-1.48,-0.10
607,-110.38,-17.92,73.18,0.44,-1.47,-0.11
608,-105.47,-20.75,64.26,0.43,-1.49,-0.15
609,-100.72,-18.29,56.96,0.40,-1.45,-0.18
610,-92.43,-15.89,49.94,0.34,-1.40,-0.19
611,-89.60,-10.44,46.32,0.25,-1.36,-0.20
612,-89.01,-4.81,44.95,0.18,-1.34,-0.22
613,-90.12,-2.58,44.24,0.13,-1.32,-0.24
614,-94.40,0.76,46.03,0.13,-1.28,-0.28
615,-88.84,3.88,48.34,0.15,-1.29,-0.24
616,-89.39,6.96,50.00,0.17,-1.25,-0.21
617,-90.18,11.74,50.29,0.22,-1.26,-0.22
618,-109.77,33.13,48.17,0.43,-1.17,-0.32
619,-95.65,26.85,44.24,0.28,-1.20,-0.35
620,-89.44,8.79,40.38,0.30,-1.16,-0.31
621,-83.74,7.19,33.28,0.45,-1.15,-0.34
622,-74.27,11.94,20.26,0.40,-1.14,-0.28
623,-62.06,14.27,7.66,0.36,-1.19,-0.23
624,-52.08,16.73,-2.14,0.29,-1.14,-0.21
625,-45.08,25.07,-5.31,0.24,-1.11,-0.19
626,-42.12,15.97,-16.89,0.13,-1.09,-0.24
627,-43.22,19.19,-7.47,0.11,-1.04,-0.35
628,-47.10,22.27,-4.99,0.05,-1.04,-0.43
629,-47.36,10.79,-4.20,-0.04,-1.04,-0.45
630,-43.45,36.79,7.11,0.27,-0.92,-0.42
631,-69.19,204.81,49.21,1.06,-0.65,-0.44
632,-37.47,164.15,8.61,-0.04,-0.97,-0.20
633,-23.73,45.69,7.95,-0.22,-1.06,-0.21
634,-16.24,4.23,-1.71,-0.04,-0.97,-0.51
635,-27.34,20.35,-0.89,0.17,-0.93,-0.59
636,-24.27,3.13,-8.56,0.25,-0.88,-0.46
637,-17.11,-23.77,-21.48,0.25,-0.95,-0.38
638,-14.50,-30.21,-26.49,0.34,-0.91,-0.41
639,-13.82,-36.67,-36.46,0.31,-0.93,-0.46
640,-10.32,-51.36,-45.56,0.25,-0.94,-0.48
641,-13.39,-63.45,-44.87,0.15,-0.93,-0.43
642,-8.15,-77.13,-46.81,0.09,-0.94,-0.45
643,-5.92,-66.00,-43.76,0.08,-0.92,-0.42
644,-2.27,-51.11,-40.08,0.02,-0.93,-0.38
645,0.18,-44.02,-33.63,-0.03,-0.90,-0.39
646,5.27,-38.49,-27.18,-0.06,-0.86,-0.40
647,9.47,-34.26,-19.31,-0.12,-0.83,-0.45
648,10.70,-23.76,-13.25,-0.05,-0.80,-0.55
649,12.29,-2.84,-8.76,-0.01,-0.82,-0.62
650,12.73,15.08,-7.74,0.02,-0.81,-0.63
651,12.73,26.02,-8.87,0.06,-0.81,-0.64
652,9.25,23.24,-12.32,0.08,-0.79,-0.67
653,4.31,20.37,-18.14,0.09,-0.77,-0.70
654,-0.47,9.83,-24.81,0.11,-0.76,-0.73
655,-7.47,0.96,-31.71,0.13,-0.79,-0.71
656,-13.08,-9.62,-37.68,0.13,-0.77,-0.68
657,-15.05,-15.45,-44.50,0.12,-0.77,-0.62
658,-14.60,-22.08,-48.82,0.09,-0.76,-0.58
659,-13.83,-20.55,-50.78,0.06,-0.76,-0.56
660,-10.89,-19.50,-49.05,-0.00,-0.74,-0.54
661,-7.07,-16.31,-43.91,-0.08,-0.75,-0.52
662,-3.07,-11.76,-37.16,-0.09,-0.72,-0.53
663,-0.75,-1.51,-29.77,-0.12,-0.73,-0.54
664,1.69,3.50,-22.00,-0.14,-0.70,-0.56
665,2.81,12.18,-15.31,-0.11,-0.72,-0.55
666,5.19,11.33,-9.92,-0.12,-0.72,-0.55
667,6.08,12.35,-6.08,-0.06,-0.69,-0.56
668,8.09,8.03,-4.31,-0.05,-0.70,-0.55
669,9.59,-2.35,-2.69,-0.07,-0.70,-0.55
670,9.92,-15.30,-2.63,-0.06,-0.71,-0.56
671,8.58,-22.73,-4.20,-0.01,-0.72,-0.57
672,8.75,-28.72,-8.24,0.01,-0.72,-0.58
673,9.07,-33.92,-12.24,0.01,-0.73,-0.58
674,8.31,-34.70,-15.92,0.00,-0.74,-0.60
675,7.08,-32.69,-19.22,0.00,-0.75,-0.61
676,5.74,-26.32,-21.02,-0.02,-0.75,-0.58
677,5.37,-19.85,-21.05,-0.04,-0.74,-0.58
678,7.08,-13.08,-20.49,-0.06,-0.72,-0.55
679,10.70,-6.99,-18.72,-0.09,-0.71,-0.55
680,13.28,-1.04,-15.65,-0.11,-0.71,-0.56
681,15.13,3.44,-11.21,-0.13,-0.71,-0.56
682,17.31,9.37,-6.31,-0.14,-0.71,-0.57
683,17.11,16.03,-1.57,-0.12,-0.75,-0.61
684,19.27,19.74,0.79,-0.11,-0.70,-0.59
685,21.51,23.57,1.27,-0.06,-0.76,-0.58
686,22.90,22.17,0.87,-0.05,-0.73,-0.59
687,21.88,22.63,0.23,-0.07,-0.72,-0.62
688,21.50,19.68,-1.50,-0.04,-0.70,-0.65
689,18.14,8.72,-2.08,-0.09,-0.70,-0.65
690,18.02,1.83,-4.02,-0.05,-0.69,-0.66
691,14.75,7.11,-3.16,-0.04,-0.69,-0.64
692,15.89,-5.80,-4.40,-0.03,-0.72,-0.60
693,15.25,-15.37,-4.18,0.02,-0.70,-0.65
694,13.69,-2.18,-4.32,0.02,-0.72,-0.65
695,13.57,-7.95,-2.53,-0.07,-0.74,-0.64
696,12.90,-9.82,0.03,-0.05,-0.71,-0.65
697,9.77,-4.72,3.56,-0.11,-0.75,-0.65
698,8.66,-4.79,6.79,-0.06,-0.71,-0.66
699,8.23,-6.76,7.73,0.00,-0.68,-0.64
700,7.22,-9.68,8.58,-0.04,-0.70,-0.63
701,6.58,-9.88,8.55,-0.02,-0.69,-0.62
702,5.28,-12.79,7.54,-0.01,-0.70,-0.63
703,5.34,-15.71,5.50,0.01,-0.71,-0.63
704,5.33,-15.42,3.50,0.02,-0.73,-0.63
705,5.60,-14.24,1.30,0.02,-0.74,-0.62
706,6.20,-13.07,-0.41,0.00,-0.74,-0.65
707,5.33,-12.14,-1.04,-0.00,-0.74,-0.67
708,3.48,-9.40,-0.50,-0.01,-0.74,-0.68
709,1.83,-6.05,0.70,-0.02,-0.75,-0.67
710,2.03,-2.85,2.03,-0.02,-0.75,-0.64
711,2.27,-2.05,3.80,-0.03,-0.75,-0.61
712,3.34,-1.25,5.54,-0.03,-0.77,-0.60
713,5.31,-0.20,6.82,-0.02,-0.77,-0.59
714,6.21,4.18,9.74,0.00,-0.77,-0.58
715,9.60,-2.12,7.73,-0.00,-0.78,-0.58
716,8.64,2.66,9.97,0.03,-0.77,-0.60
717,9.73,5.28,9.28,0.13,-0.75,-0.64
718,10.90,4.66,6.93,0.05,-0.76,-0.65
719,11.27,6.89,4.89,0.05,-0.76,-0.67
720,10.79,6.72,2.09,0.08,-0.76,-0.67
721,9.56,5.92,-0.63,0.09,-0.75,-0.69
722,7.25,7.18,-3.22,0.10,-0.77,-0.69
723,4.96,4.38,-5.74,0.08,-0.76,-0.66
724,3.37,1.57,-7.66,0.09,-0.77,-0.65
725,1.47,-0.44,-8.87,0.07,-0.78,-0.64
726,0.82,-2.98,-8.75,0.05,-0.77,-0.64
727,-0.89,-5.40,-8.20,0.05,-0.77,-0.63
728,-1.51,-1.08,-6.72,0.06,-0.78,-0.62
729,-0.23,1.11,-5.19,0.04,-0.79,-0.58
730,1.66,4.96,-3.13,0.06,-0.79,-0.57
731,3.66,14.82,-1.44,0.07,-0.81,-0.56
732,6.29,19.39,0.67,0.03,-0.80,-0.56
733,8.55,21.79,2.12,0.04,-0.81,-0.57
734,8.84,24.18,2.75,0.06,-0.80,-0.60
735,8.15,28.76,2.43,0.08,-0.79,-0.60
736,8.90,26.58,0.34,0.08,-0.80,-0.58
737,8.93,17.79,-2.34,0.08,-0.80,-0.59
