,gyro_x,gyro_y,gyro_z,acce_x,acce_y,acce_z
0,-43.34,-7.60,0.34,-0.03,-0.56,0.90
1,-43.27,-6.55,0.92,-0.02,-0.56,0.88
2,-43.62,-4.61,1.79,-0.01,-0.55,0.86
3,-43.83,-4.53,2.15,-0.02,-0.56,0.87
4,-43.89,-4.85,2.03,-0.01,-0.56,0.86
5,-43.51,-4.87,2.43,-0.01,-0.56,0.85
6,-43.21,-4.44,2.12,-0.00,-0.56,0.83
7,-43.02,-4.60,1.62,0.00,-0.56,0.83
8,-43.07,-4.66,1.04,0.00,-0.56,0.81
9,-44.08,-5.57,0.50,0.01,-0.56,0.80
10,-45.02,-6.11,-0.21,0.00,-0.56,0.79
11,-46.96,-6.61,-1.07,-0.00,-0.56,0.78
12,-49.45,-4.73,-1.77,0.02,-0.56,0.75
13,-51.07,-3.92,-1.57,0.01,-0.56,0.77
14,-52.79,-6.98,-2.17,-0.01,-0.57,0.80
15,-53.51,-8.06,-1.39,-0.00,-0.57,0.78
16,-54.43,-5.76,-0.43,0.01,-0.58,0.77
17,-54.99,-3.91,-0.29,0.02,-0.58,0.77
18,-55.19,-2.93,-0.38,0.02,-0.59,0.79
19,-54.70,-3.37,-0.95,0.01,-0.61,0.79
20,-54.38,-3.73,-1.34,0.01,-0.61,0.80
21,-54.41,-5.18,-2.06,0.00,-0.62,0.80
22,-53.97,-5.21,-2.58,0.01,-0.63,0.79
23,-53.48,-5.39,-2.72,0.01,-0.64,0.81
24,-53.01,-4.93,-2.69,0.01,-0.65,0.81
25,-52.66,-4.12,-2.81,0.02,-0.64,0.82
26,-52.17,-2.12,-2.93,0.02,-0.66,0.82
27,-51.83,-0.40,-2.82,0.03,-0.66,0.82
28,-51.74,1.28,-3.13,0.03,-0.66,0.81
29,-51.91,1.86,-3.31,0.02,-0.68,0.81
30,-52.31,0.92,-4.27,0.01,-0.68,0.82
31,-51.42,2.60,-3.25,0.01,-0.69,0.80
32,-51.07,5.28,-2.44,0.01,-0.69,0.78
33,-51.04,5.94,-1.86,0.00,-0.70,0.78
34,-50.32,5.98,-2.05,-0.00,-0.70,0.77
35,-49.36,4.55,-2.17,0.00,-0.71,0.76
36,-48.81,3.59,-2.34,-0.01,-0.71,0.74
37,-48.38,1.83,-2.70,-0.01,-0.71,0.74
38,-48.34,2.23,-2.46,0.00,-0.71,0.72
39,-48.82,1.33,-2.50,0.00,-0.72,0.72
40,-49.34,-0.12,-2.85,-0.00,-0.72,0.71
41,-49.74,-0.93,-3.02,0.01,-0.72,0.70
42,-50.43,-0.95,-3.01,0.02,-0.72,0.69
43,-51.15,-0.95,-3.16,0.02,-0.73,0.69
44,-52.47,-1.39,-3.50,0.01,-0.73,0.68
45,-53.33,-1.85,-3.50,0.02,-0.74,0.68
46,-54.03,-2.43,-3.39,0.02,-0.75,0.68
47,-54.00,-3.57,-4.02,0.02,-0.76,0.70
48,-53.60,-2.99,-4.32,0.03,-0.77,0.69
49,-53.76,-3.07,-4.96,0.03,-0.76,0.69
50,-53.68,-2.73,-5.42,0.03,-0.77,0.69
51,-53.73,-2.58,-5.73,0.04,-0.78,0.67
52,-53.37,-2.37,-5.94,0.03,-0.78,0.66
53,-53.28,-3.05,-6.98,0.04,-0.78,0.66
54,-53.51,-3.65,-7.98,0.05,-0.79,0.65
55,-53.53,-4.37,-8.84,0.05,-0.80,0.65
56,-54.20,-5.68,-9.79,0.04,-0.80,0.65
57,-54.09,-5.86,-10.11,0.03,-0.81,0.63
58,-55.02,-6.89,-10.47,0.03,-0.81,0.64
59,-55.66,-8.29,-10.56,0.03,-0.82,0.63
60,-56.14,-8.64,-10.43,0.04,-0.84,0.63
61,-56.55,-7.53,-9.74,0.04,-0.84,0.62
62,-56.69,-6.41,-9.50,0.04,-0.84,0.62
63,-57.07,-5.53,-9.16,0.05,-0.85,0.63
64,-56.60,-3.59,-8.27,0.05,-0.85,0.62
65,-56.24,-1.91,-8.02,0.05,-0.86,0.61
66,-55.53,-1.39,-8.52,0.05,-0.86,0.62
67,-54.66,-1.07,-8.81,0.06,-0.86,0.61
68,-53.82,-0.40,-8.81,0.06,-0.87,0.61
69,-53.07,-0.40,-9.45,0.06,-0.87,0.60
70,-51.83,-1.33,-9.88,0.05,-0.89,0.61
71,-51.39,-1.82,-10.60,0.05,-0.88,0.59
72,-50.85,-1.71,-10.47,0.05,-0.88,0.57
73,-50.78,-1.95,-10.49,0.05,-0.87,0.56
74,-50.99,-2.61,-10.37,0.04,-0.88,0.55
75,-51.76,-2.75,-10.46,0.05,-0.88,0.55
76,-52.32,-2.44,-10.32,0.06,-0.88,0.54
77,-52.76,-2.53,-10.82,0.07,-0.88,0.54
78,-53.56,-2.40,-11.21,0.07,-0.88,0.53
79,-53.85,-2.46,-11.82,0.07,-0.88,0.53
80,-53.76,-3.13,-12.60,0.07,-0.90,0.53
81,-53.65,-4.98,-13.59,0.06,-0.90,0.54
82,-53.18,-5.94,-14.34,0.06,-0.92,0.53
83,-53.02,-7.97,-14.69,0.06,-0.92,0.54
84,-52.14,-10.60,-15.89,0.06,-0.93,0.55
85,-51.28,-11.94,-15.86,0.06,-0.94,0.55
86,-50.41,-12.67,-15.60,0.06,-0.94,0.55
87,-49.68,-12.95,-15.24,0.06,-0.95,0.54
88,-49.37,-11.71,-14.15,0.06,-0.95,0.52
89,-49.33,-9.62,-12.96,0.07,-0.95,0.52
90,-49.63,-8.78,-12.75,0.08,-0.95,0.52
91,-49.47,-7.69,-12.26,0.08,-0.95,0.51
92,-49.53,-5.74,-12.00,0.09,-0.96,0.51
93,-49.86,-3.76,-11.28,0.08,-0.96,0.50
94,-50.47,-2.18,-10.89,0.08,-0.95,0.48
95,-50.14,-1.22,-10.76,0.08,-0.96,0.48
96,-49.73,-1.19,-10.69,0.07,-0.97,0.48
97,-49.24,-1.92,-11.30,0.08,-0.97,0.48
98,-48.14,-1.83,-11.02,0.08,-0.98,0.47
99,-47.40,-2.41,-11.16,0.08,-0.98,0.47
100,-46.70,-4.11,-12.03,0.08,-0.98,0.45
101,-46.43,-5.51,-12.78,0.08,-0.97,0.44
102,-46.29,-7.28,-13.60,0.08,-0.98,0.44
103,-46.56,-9.34,-14.47,0.09,-0.98,0.43
104,-47.15,-10.92,-15.45,0.09,-0.98,0.43
105,-47.25,-12.31,-16.05,0.08,-0.98,0.42
106,-47.95,-13.80,-16.37,0.09,-0.99,0.41
107,-48.56,-15.04,-16.61,0.09,-0.99,0.41
108,-48.96,-15.40,-16.78,0.11,-0.99,0.41
109,-48.89,-14.72,-16.17,0.11,-0.99,0.40
110,-49.51,-13.04,-15.68,0.11,-0.98,0.40
111,-49.62,-11.51,-14.81,0.12,-0.98,0.39
112,-49.60,-11.07,-14.67,0.12,-0.99,0.40
113,-49.89,-10.18,-14.38,0.12,-0.98,0.39
114,-50.03,-9.31,-13.65,0.13,-0.98,0.37
115,-50.23,-10.32,-14.23,0.13,-0.98,0.37
116,-50.24,-11.24,-14.56,0.14,-0.99,0.36
117,-49.62,-11.97,-14.98,0.15,-0.99,0.37
118,-49.76,-14.05,-16.09,0.14,-0.99,0.36
119,-49.33,-15.79,-17.04,0.15,-1.00,0.35
120,-48.55,-17.47,-18.11,0.15,-1.00,0.33
121,-48.37,-19.68,-19.42,0.15,-1.00,0.32
122,-48.12,-21.57,-20.66,0.16,-1.01,0.32
123,-48.38,-23.45,-21.33,0.15,-1.02,0.32
124,-48.61,-24.67,-21.33,0.14,-1.01,0.30
125,-48.66,-24.93,-20.81,0.14,-1.02,0.31
126,-48.96,-23.83,-20.09,0.15,-1.01,0.30
127,-49.21,-20.93,-18.56,0.16,-1.00,0.28
128,-49.36,-18.20,-17.04,0.15,-1.00,0.27
129,-49.28,-15.69,-15.88,0.16,-1.00,0.27
130,-49.10,-13.18,-14.49,0.15,-1.01,0.25
131,-49.51,-11.45,-13.60,0.16,-1.00,0.22
132,-49.74,-11.53,-13.34,0.15,-1.00,0.21
133,-50.31,-13.31,-13.82,0.15,-1.00,0.19
134,-51.16,-14.98,-14.50,0.14,-1.00,0.17
135,-52.26,-16.35,-15.15,0.15,-1.01,0.17
136,-53.39,-16.95,-15.54,0.16,-1.01,0.17
137,-54.52,-16.46,-15.13,0.15,-1.01,0.16
138,-55.34,-16.38,-14.60,0.16,-1.01,0.16
139,-55.63,-16.44,-13.86,0.13,-1.01,0.15
140,-55.39,-17.16,-12.24,0.13,-1.01,0.17
141,-54.89,-17.28,-10.60,0.14,-1.01,0.17
142,-54.05,-17.30,-8.98,0.14,-1.02,0.18
143,-53.18,-17.47,-7.88,0.15,-1.02,0.18
144,-52.61,-18.26,-7.04,0.15,-1.02,0.17
145,-52.32,-18.92,-6.44,0.16,-1.03,0.17
146,-51.86,-19.34,-6.21,0.16,-1.04,0.17
147,-51.33,-21.48,-6.78,0.17,-1.05,0.19
148,-50.14,-22.38,-6.53,0.17,-1.05,0.19
149,-48.89,-24.21,-6.58,0.16,-1.06,0.20
150,-47.28,-24.92,-6.64,0.17,-1.07,0.20
151,-45.83,-25.51,-6.69,0.18,-1.07,0.20
152,-44.02,-25.07,-6.75,0.19,-1.06,0.21
153,-42.70,-23.65,-5.80,0.18,-1.06,0.20
154,-41.19,-21.15,-4.35,0.19,-1.06,0.19
155,-40.06,-19.69,-3.65,0.18,-1.05,0.19
156,-38.79,-17.13,-2.18,0.19,-1.05,0.16
157,-38.08,-13.16,-0.47,0.19,-1.04,0.14
158,-37.56,-10.84,0.61,0.19,-1.03,0.15
159,-37.07,-9.33,0.95,0.18,-1.04,0.13
160,-36.49,-6.52,2.06,0.20,-1.03,0.10
161,-36.84,-4.98,2.21,0.19,-1.02,0.09
162,-36.85,-7.15,1.63,0.19,-1.02,0.08
163,-38.09,-7.92,0.53,0.19,-1.02,0.07
164,-39.85,-7.39,-0.15,0.21,-1.02,0.05
165,-40.43,-7.95,-0.67,0.21,-1.01,0.05
166,-40.66,-9.50,-1.48,0.20,-1.01,0.05
167,-40.32,-11.08,-2.27,0.19,-1.02,0.06
168,-40.46,-11.40,-3.19,0.20,-1.02,0.06
169,-40.11,-10.43,-3.50,0.22,-1.01,0.04
170,-39.83,-10.70,-4.47,0.20,-1.01,0.04
171,-39.25,-11.60,-5.08,0.19,-1.01,0.04
172,-38.98,-11.27,-4.63,0.18,-1.01,0.02
173,-39.56,-10.82,-4.03,0.18,-1.01,-0.00
174,-40.18,-12.00,-3.86,0.18,-1.01,-0.01
175,-41.04,-13.59,-4.03,0.19,-1.01,-0.01
176,-41.60,-13.83,-3.77,0.19,-1.02,-0.02
177,-42.21,-14.26,-4.00,0.20,-1.02,-0.00
178,-42.72,-13.62,-4.14,0.21,-1.02,-0.02
179,-43.01,-12.56,-4.70,0.21,-1.01,-0.03
180,-43.77,-12.85,-4.81,0.20,-1.01,-0.04
181,-45.01,-13.05,-5.22,0.21,-1.00,-0.07
182,-46.27,-13.30,-5.33,0.21,-1.00,-0.07
183,-47.24,-14.40,-5.59,0.21,-1.00,-0.06
184,-48.24,-15.28,-6.44,0.21,-1.01,-0.04
185,-48.64,-15.01,-6.84,0.23,-1.01,-0.06
186,-49.42,-15.42,-7.44,0.23,-1.01,-0.05
187,-49.31,-16.99,-8.64,0.23,-1.01,-0.05
188,-49.31,-16.55,-9.02,0.24,-1.01,-0.07
189,-49.79,-16.03,-9.34,0.23,-1.01,-0.07
190,-50.41,-15.77,-10.20,0.24,-1.01,-0.07
191,-51.40,-16.06,-11.04,0.24,-1.01,-0.07
192,-51.95,-15.59,-11.21,0.25,-1.00,-0.07
193,-52.99,-14.37,-11.48,0.25,-1.01,-0.06
194,-53.68,-11.63,-11.18,0.26,-1.00,-0.08
195,-54.17,-8.96,-10.82,0.25,-1.00,-0.09
196,-54.99,-7.31,-10.61,0.25,-0.99,-0.11
197,-55.15,-6.85,-10.67,0.24,-0.98,-0.10
198,-54.93,-7.60,-10.63,0.23,-0.98,-0.10
199,-53.83,-8.37,-10.56,0.23,-1.00,-0.10
200,-54.11,-7.92,-11.33,0.24,-1.00,-0.10
201,-53.44,-5.13,-11.22,0.26,-0.99,-0.11
202,-53.02,-5.83,-12.60,0.24,-1.00,-0.09
203,-51.27,-8.17,-13.40,0.23,-1.00,-0.11
204,-49.62,-8.32,-13.19,0.23,-0.99,-0.14
205,-48.72,-7.42,-12.49,0.22,-0.98,-0.16
206,-48.75,-5.62,-12.35,0.23,-0.97,-0.19
207,-49.27,-7.08,-13.02,0.23,-0.98,-0.20
208,-48.92,-9.31,-13.34,0.24,-0.97,-0.19
209,-48.89,-9.85,-13.33,0.24,-0.98,-0.19
210,-49.28,-8.44,-13.18,0.25,-0.98,-0.20
211,-49.71,-6.95,-12.43,0.24,-0.97,-0.22
212,-49.68,-6.55,-12.24,0.24,-0.98,-0.23
213,-48.75,-6.52,-11.68,0.24,-0.97,-0.21
214,-47.60,-6.12,-11.59,0.24,-0.98,-0.22
215,-47.16,-5.44,-11.19,0.23,-0.97,-0.23
216,-46.44,-4.69,-10.03,0.23,-0.97,-0.25
217,-45.33,-5.21,-9.16,0.23,-0.96,-0.24
218,-44.18,-6.49,-9.50,0.24,-0.98,-0.29
219,-46.72,-5.74,-7.24,0.26,-0.94,-0.27
220,-47.25,-7.68,-7.15,0.24,-0.95,-0.26
221,-44.69,-8.21,-6.21,0.23,-0.95,-0.28
222,-44.38,-8.63,-5.33,0.23,-0.94,-0.29
223,-43.36,-9.15,-4.32,0.24,-0.94,-0.30
224,-45.59,-10.90,-5.39,0.23,-0.92,-0.30
225,-42.52,-8.64,-4.40,0.23,-0.95,-0.33
226,-43.50,-7.86,-2.18,0.23,-0.92,-0.31
227,-44.61,-9.25,-1.94,0.23,-0.92,-0.32
228,-44.40,-11.02,-1.83,0.23,-0.92,-0.31
229,-42.69,-11.25,-1.57,0.23,-0.92,-0.32
230,-42.24,-12.78,-2.20,0.24,-0.92,-0.30
231,-43.54,-16.63,-3.68,0.24,-0.92,-0.31
232,-37.69,-15.25,-2.90,0.25,-0.91,-0.30
233,-36.49,-19.21,-4.93,0.25,-0.92,-0.31
234,-35.68,-21.62,-7.07,0.27,-0.91,-0.34
235,-35.98,-23.50,-8.61,0.28,-0.90,-0.35
236,-36.40,-23.83,-9.37,0.28,-0.89,-0.37
237,-38.69,-21.98,-10.52,0.28,-0.87,-0.40
238,-37.40,-21.19,-10.93,0.28,-0.89,-0.42
239,-38.50,-19.56,-10.43,0.28,-0.88,-0.40
240,-38.34,-16.79,-9.28,0.27,-0.88,-0.40
241,-39.98,-14.02,-8.24,0.26,-0.88,-0.42
242,-42.56,-11.60,-7.05,0.27,-0.86,-0.46
243,-44.52,-9.31,-5.77,0.26,-0.86,-0.45
244,-46.76,-9.01,-5.33,0.25,-0.87,-0.44
245,-48.11,-8.82,-4.98,0.25,-0.87,-0.44
246,-50.12,-9.39,-5.22,0.25,-0.86,-0.43
247,-51.30,-10.18,-4.70,0.25,-0.86,-0.44
248,-52.38,-10.61,-5.18,0.25,-0.86,-0.45
249,-53.16,-10.63,-5.95,0.27,-0.86,-0.44
250,-53.65,-8.95,-6.29,0.29,-0.88,-0.44
251,-53.98,-7.97,-6.40,0.29,-0.88,-0.43
252,-54.67,-8.75,-6.81,0.27,-0.87,-0.42
253,-55.21,-8.98,-6.82,0.28,-0.87,-0.41
254,-55.42,-8.82,-6.40,0.27,-0.87,-0.43
255,-56.11,-9.25,-6.47,0.26,-0.87,-0.43
256,-57.18,-8.93,-6.56,0.27,-0.88,-0.43
257,-57.68,-9.05,-6.96,0.26,-0.88,-0.45
258,-58.40,-10.06,-7.39,0.25,-0.87,-0.45
259,-59.82,-12.67,-8.17,0.24,-0.88,-0.45
260,-60.20,-13.25,-8.34,0.26,-0.87,-0.45
261,-60.89,-12.23,-8.49,0.26,-0.87,-0.45
262,-62.53,-11.85,-8.47,0.26,-0.87,-0.44
263,-60.24,-9.25,-7.80,0.28,-0.88,-0.42
264,-59.50,-8.99,-7.66,0.26,-0.87,-0.43
265,-57.95,-6.15,-6.15,0.28,-0.86,-0.44
266,-56.78,-9.88,-6.53,0.22,-0.84,-0.43
267,-55.01,-4.15,-3.01,0.24,-0.81,-0.44
268,-50.96,-0.98,-0.78,0.24,-0.82,-0.47
269,-49.25,3.65,1.57,0.25,-0.85,-0.48
270,-48.85,0.67,1.56,0.21,-0.83,-0.48
271,-49.98,-2.53,3.79,0.24,-0.80,-0.49
272,-48.00,-2.14,3.83,0.22,-0.80,-0.52
273,-50.47,-3.60,2.92,0.21,-0.81,-0.53
274,-50.17,-5.39,3.57,0.22,-0.78,-0.54
275,-52.24,-5.53,3.79,0.24,-0.77,-0.55
276,-52.60,-5.48,3.63,0.26,-0.79,-0.55
277,-54.69,-7.62,2.29,0.25,-0.79,-0.54
278,-57.27,-3.18,3.53,0.29,-0.78,-0.51
279,-58.27,-1.86,2.58,0.26,-0.80,-0.52
280,-57.08,-0.41,3.56,0.26,-0.84,-0.51
281,-57.16,-0.72,4.89,0.25,-0.81,-0.48
282,-56.67,-0.32,6.38,0.24,-0.81,-0.49
283,-53.89,3.05,7.11,0.23,-0.81,-0.51
284,-53.69,5.10,7.40,0.25,-0.83,-0.49
285,-52.27,7.89,8.06,0.25,-0.80,-0.50
286,-49.36,9.63,8.85,0.26,-0.85,-0.48
287,-49.07,5.83,7.68,0.23,-0.82,-0.44
288,-46.05,5.73,4.03,0.19,-0.77,-0.50
289,-44.50,6.05,4.95,0.22,-0.84,-0.56
290,-46.23,0.85,5.95,0.22,-0.77,-0.55
291,-46.23,-0.26,4.61,0.24,-0.77,-0.59
292,-49.25,-0.95,3.07,0.26,-0.75,-0.64
293,-52.40,-2.14,1.98,0.26,-0.74,-0.67
294,-55.48,-2.02,0.46,0.28,-0.74,-0.66
295,-57.30,-0.66,-0.78,0.30,-0.74,-0.66
296,-58.56,2.37,-2.35,0.30,-0.75,-0.63
297,-59.31,2.40,-4.18,0.27,-0.76,-0.61
298,-58.92,4.32,-3.94,0.26,-0.75,-0.62
299,-57.33,3.31,-3.94,0.25,-0.76,-0.61
300,-55.37,1.40,-3.69,0.25,-0.77,-0.56
301,-52.35,-0.60,-3.74,0.24,-0.77,-0.56
302,-49.63,-0.38,-2.76,0.24,-0.76,-0.58
303,-47.28,-2.23,-3.01,0.24,-0.76,-0.58
304,-46.61,-4.93,-6.87,0.19,-0.72,-0.60
305,-44.02,0.69,-4.44,0.26,-0.76,-0.64
306,-45.57,1.28,-2.69,0.27,-0.70,-0.67
307,-47.94,2.56,-3.48,0.29,-0.69,-0.72
308,-50.38,4.84,-3.68,0.30,-0.67,-0.74
309,-52.38,6.70,-4.12,0.32,-0.67,-0.72
310,-61.73,3.91,-7.37,0.32,-0.66,-0.72
311,-61.04,13.45,-5.45,0.34,-0.59,-0.71
312,-63.82,11.56,-8.26,0.30,-0.62,-0.77
313,-66.02,14.05,-8.31,0.31,-0.62,-0.75
314,-69.42,11.97,-9.15,0.32,-0.61,-0.75
315,-72.73,13.31,-6.85,0.36,-0.58,-0.65
316,-70.56,9.80,-12.24,0.33,-0.62,-0.68
317,-66.56,10.03,-13.62,0.32,-0.66,-0.71
318,-63.07,8.56,-14.08,0.32,-0.63,-0.62
319,-60.03,8.23,-16.70,0.32,-0.64,-0.65
320,-58.41,7.80,-17.31,0.31,-0.62,-0.69
321,-56.79,6.49,-18.35,0.32,-0.61,-0.71
322,-59.62,7.39,-20.26,0.35,-0.59,-0.74
323,-60.27,10.82,-20.96,0.36,-0.60,-0.77
324,-62.93,10.87,-23.34,0.34,-0.59,-0.77
325,-62.26,11.31,-23.40,0.34,-0.58,-0.72
326,-60.81,11.51,-23.33,0.33,-0.58,-0.68
327,-58.09,11.73,-23.39,0.31,-0.58,-0.68
328,-54.98,11.60,-22.43,0.29,-0.57,-0.68
329,-51.42,10.82,-21.47,0.28,-0.56,-0.66
330,-49.15,7.15,-21.63,0.26,-0.55,-0.66
331,-47.18,7.47,-21.68,0.29,-0.53,-0.73
332,-48.67,13.59,-19.68,0.34,-0.49,-0.79
333,-50.15,15.44,-21.16,0.33,-0.48,-0.80
334,-52.76,17.66,-22.03,0.35,-0.48,-0.85
335,-55.95,19.60,-22.85,0.34,-0.46,-0.87
336,-58.38,19.71,-24.78,0.32,-0.47,-0.84
337,-58.18,16.61,-26.85,0.30,-0.48,-0.79
338,-55.60,14.14,-27.40,0.27,-0.47,-0.74
339,-48.69,9.82,-26.37,0.24,-0.49,-0.69
340,-44.98,8.52,-24.90,0.24,-0.48,-0.69
341,-40.27,8.56,-22.12,0.24,-0.48,-0.72
342,-37.01,7.02,-19.36,0.23,-0.47,-0.73
343,-36.20,7.48,-16.64,0.26,-0.44,-0.77
344,-36.43,9.48,-13.02,0.28,-0.40,-0.84
345,-39.10,7.91,-11.95,0.28,-0.40,-0.86
346,-43.16,9.89,-10.95,0.32,-0.37,-0.90
347,-42.81,12.26,-10.81,0.35,-0.38,-0.90
348,-45.76,14.44,-12.61,0.36,-0.36,-0.88
349,-46.95,16.00,-13.71,0.35,-0.37,-0.87
350,-46.03,13.15,-15.13,0.30,-0.38,-0.82
351,-42.18,9.47,-15.69,0.29,-0.40,-0.79
352,-39.63,4.64,-16.55,0.28,-0.40,-0.76
353,-37.22,2.63,-17.10,0.29,-0.39,-0.78
354,-33.07,3.15,-15.83,0.32,-0.39,-0.78
355,-31.47,2.23,-16.14,0.32,-0.36,-0.79
356,-33.44,2.89,-16.61,0.32,-0.33,-0.86
357,-34.73,4.61,-16.21,0.35,-0.31,-0.92
358,-41.15,6.11,-17.80,0.39,-0.27,-0.94
359,-45.89,7.68,-19.66,0.40,-0.26,-0.97
360,-51.74,5.05,-22.60,0.36,-0.26,-0.95
361,-54.76,0.24,-25.39,0.37,-0.27,-0.92
362,-56.58,-2.02,-27.62,0.37,-0.27,-0.92
363,-57.42,-2.38,-29.59,0.36,-0.28,-0.88
364,-53.53,1.05,-28.70,0.33,-0.30,-0.84
365,-53.40,0.20,-28.47,0.27,-0.32,-0.83
366,-48.66,2.81,-23.97,0.28,-0.34,-0.80
367,-47.40,1.76,-20.31,0.29,-0.31,-0.74
368,-42.43,2.82,-17.15,0.29,-0.32,-0.75
369,-41.60,2.40,-14.37,0.28,-0.30,-0.77
370,-37.11,6.58,-8.56,0.29,-0.29,-0.81
371,-34.63,3.88,-6.72,0.28,-0.31,-0.81
372,-33.31,1.98,-5.59,0.28,-0.31,-0.80
373,-32.72,2.66,-3.05,0.33,-0.30,-0.81
374,-32.37,3.02,-2.49,0.30,-0.28,-0.79
375,-25.37,8.56,0.49,0.33,-0.29,-0.81
376,-25.45,9.57,1.44,0.34,-0.31,-0.80
377,-27.39,9.56,2.40,0.35,-0.26,-0.83
378,-29.13,10.24,0.69,0.36,-0.26,-0.85
379,-32.15,14.41,-0.08,0.37,-0.25,-0.85
380,-32.29,14.95,-0.66,0.38,-0.27,-0.84
381,-36.09,11.74,-2.82,0.40,-0.27,-0.82
382,-34.72,13.63,-4.23,0.41,-0.27,-0.82
383,-36.18,14.37,-7.19,0.41,-0.27,-0.82
384,-36.11,14.41,-9.22,0.41,-0.27,-0.82
385,-35.98,12.26,-11.69,0.42,-0.26,-0.80
386,-33.94,10.29,-13.69,0.43,-0.26,-0.80
387,-31.77,7.59,-16.12,0.43,-0.25,-0.77
388,-27.51,6.05,-17.40,0.44,-0.25,-0.78
389,-22.56,6.60,-17.91,0.43,-0.24,-0.79
390,-22.26,5.66,-19.02,0.41,-0.24,-0.78
391,-20.53,5.42,-19.16,0.41,-0.23,-0.77
392,-17.85,4.50,-19.30,0.40,-0.24,-0.75
393,-14.95,3.30,-18.38,0.39,-0.24,-0.74
394,-11.11,4.32,-16.98,0.41,-0.24,-0.75
395,-8.56,3.79,-16.47,0.40,-0.24,-0.76
396,-4.63,5.11,-14.79,0.38,-0.24,-0.76
397,-2.56,4.08,-12.66,0.37,-0.24,-0.74
398,0.79,3.24,-10.87,0.38,-0.26,-0.75
399,3.34,2.98,-8.92,0.39,-0.25,-0.76
400,4.99,3.76,-7.45,0.38,-0.25,-0.77
