,gyro_x,gyro_y,gyro_z,acce_x,acce_y,acce_z
0,3.54,9.74,-0.14,0.20,1.07,"29.75[0m
"
1,1.24,3.34,10.35,-0.15,0.20,1.06
2,1.71,3.79,10.35,-0.15,0.20,1.06
3,2.11,2.76,10.46,-0.15,0.20,1.06
4,1.98,3.08,10.31,-0.15,0.21,1.06
5,2.11,2.67,10.34,-0.16,0.20,1.06
6,2.43,1.79,10.56,-0.16,0.21,1.07
7,2.95,0.89,10.58,-0.15,0.20,1.06
8,3.62,0.18,10.38,-0.14,0.20,1.08
9,4.21,-0.06,10.46,-0.14,0.20,1.09
10,4.79,-0.20,10.15,-0.14,0.20,1.10
11,5.39,-0.52,10.03,-0.13,0.21,1.10
12,6.08,-0.79,9.62,-0.13,0.21,1.10
13,7.16,-0.52,9.28,-0.13,0.20,1.10
14,8.00,-1.08,9.27,-0.13,0.21,1.12
15,9.21,-1.30,9.30,-0.13,0.21,1.12
16,10.76,-1.33,9.54,-0.13,0.21,1.11
17,12.12,-1.71,9.54,-0.13,0.20,1.12
18,14.06,-2.15,9.95,-0.14,0.21,1.13
19,16.24,-3.15,10.24,-0.14,0.21,1.13
20,18.44,-4.61,10.43,-0.13,0.21,1.12
21,20.40,-4.63,9.88,-0.13,0.21,1.14
22,23.18,-4.43,9.95,-0.14,0.20,1.15
23,28.05,-4.89,11.37,-0.15,0.18,1.17
24,34.72,-6.90,13.11,-0.15,0.18,1.19
25,38.21,-3.48,13.21,-0.13,0.19,1.18
26,44.61,-5.83,14.27,-0.15,0.18,1.19
27,50.50,-6.67,13.95,-0.13,0.18,1.20
28,61.04,-7.59,15.21,-0.14,0.16,1.23
29,71.69,-7.66,16.50,-0.14,0.15,1.25
30,83.57,-6.06,17.63,-0.13,0.14,1.26
31,94.70,-2.29,17.54,-0.12,0.15,1.25
32,106.87,-4.60,18.12,-0.13,0.14,1.25
33,121.21,-3.92,17.68,-0.09,0.17,1.24
34,133.86,0.26,15.27,-0.06,0.22,1.19
35,141.98,2.24,13.16,-0.06,0.26,1.13
36,148.20,3.98,11.68,-0.06,0.29,1.07
37,153.85,6.63,10.37,-0.06,0.31,1.04
38,154.02,9.88,7.39,-0.06,0.35,0.97
39,155.13,9.40,6.60,-0.06,0.38,0.88
40,150.26,16.17,3.56,-0.02,0.43,0.78
41,142.66,19.11,1.22,-0.03,0.47,0.69
42,136.18,19.37,2.14,-0.05,0.50,0.62
43,120.35,21.92,-0.43,-0.02,0.60,0.44
44,103.80,24.20,-1.85,-0.03,0.60,0.39
45,88.75,26.50,0.69,-0.06,0.62,0.34
46,58.44,46.05,-2.84,0.02,0.71,0.19
47,51.94,23.19,-2.81,-0.13,0.66,0.23
48,33.73,21.91,-4.81,-0.11,0.66,0.18
49,13.59,19.37,-1.88,-0.07,0.72,0.11
50,-6.53,15.53,-0.11,-0.11,0.75,0.10
51,-29.22,4.73,-1.66,-0.15,0.78,0.02
52,-57.86,-9.30,-4.99,-0.17,0.83,-0.06
53,-91.74,-17.45,-7.82,-0.16,0.82,-0.05
54,-126.11,-25.40,-7.13,-0.16,0.81,-0.04
55,-159.56,-26.85,-8.87,-0.11,0.78,-0.02
56,-194.56,-33.95,-11.57,-0.10,0.74,0.00
57,-232.41,-36.72,-17.19,-0.06,0.69,0.03
58,-264.99,-37.57,-22.06,-0.02,0.61,0.09
59,-296.03,-32.73,-28.96,0.05,0.54,0.15
60,-326.96,-25.22,-35.24,0.12,0.46,0.17
61,-350.37,-32.46,-41.44,0.07,0.31,0.29
62,-373.25,-27.07,-44.64,0.07,0.19,0.38
63,-384.29,-31.42,-41.22,-0.02,-0.07,0.57
64,-392.29,-23.33,-34.44,-0.06,-0.23,0.80
65,-388.92,-20.35,-22.95,-0.15,-0.38,1.03
66,-366.75,-22.72,-7.86,-0.23,-0.57,1.36
67,-336.63,-7.30,2.73,-0.24,-0.65,1.67
68,-289.27,-3.27,22.55,-0.30,-0.70,1.92
69,-242.95,5.22,28.11,-0.19,-0.68,2.09
70,-186.64,-19.21,33.44,-0.25,-0.67,2.14
71,-124.61,-36.60,32.53,-0.11,-0.62,2.21
72,-67.15,-15.48,18.99,-0.04,-0.58,2.26
73,-16.55,-17.04,12.20,-0.16,-0.55,2.21
74,14.63,-29.88,7.56,-0.21,-0.45,2.07
75,36.78,-48.73,8.32,-0.24,-0.41,1.98
76,52.15,-56.14,9.74,-0.18,-0.37,1.93
77,60.95,-54.50,10.89,-0.13,-0.30,1.89
78,61.62,-37.98,10.05,-0.06,-0.24,1.87
79,77.07,-33.45,19.65,-0.08,-0.32,1.91
80,81.50,-2.93,21.16,0.05,-0.25,1.91
81,96.64,18.60,26.52,0.01,-0.31,1.97
82,121.62,37.60,31.88,0.01,-0.34,2.00
83,149.19,61.25,32.56,0.00,-0.34,1.98
84,172.18,74.47,32.73,-0.02,-0.34,1.92
85,194.14,79.25,33.66,-0.11,-0.33,1.83
86,217.48,88.96,39.25,-0.11,-0.33,1.75
87,241.36,88.61,42.67,-0.18,-0.30,1.69
88,262.63,87.10,43.79,-0.15,-0.28,1.60
89,278.73,85.22,44.98,-0.16,-0.24,1.49
90,288.70,79.92,45.31,-0.16,-0.19,1.35
91,293.30,62.14,46.98,-0.22,-0.12,1.21
92,287.24,50.70,46.15,-0.17,-0.05,1.08
93,283.22,51.83,44.92,-0.12,0.02,0.99
94,288.27,52.56,46.00,-0.08,0.04,1.02
95,287.36,41.45,47.07,-0.13,0.09,0.88
96,287.56,45.57,43.44,-0.04,0.16,0.82
97,293.97,39.73,45.25,-0.05,0.16,0.79
98,293.22,43.36,42.26,0.02,0.24,0.68
99,285.04,53.07,36.47,0.06,0.29,0.55
100,268.02,66.27,29.11,0.06,0.38,0.46
101,249.34,71.34,25.45,0.03,0.45,0.31
102,228.76,69.44,24.00,0.01,0.52,0.20
103,200.63,79.11,16.56,0.09,0.60,0.07
104,176.99,73.63,14.70,0.00,0.63,0.01
105,151.37,69.13,13.37,-0.06,0.68,-0.05
106,128.63,62.08,9.50,-0.07,0.69,-0.11
107,104.21,61.80,4.96,-0.06,0.72,-0.12
108,79.76,56.05,3.01,-0.09,0.73,-0.15
109,58.11,52.27,3.86,-0.08,0.72,-0.13
110,34.60,45.30,-1.47,-0.11,0.72,-0.16
111,11.92,41.77,-3.91,-0.07,0.73,-0.16
112,-15.73,43.10,-4.78,-0.07,0.75,-0.19
113,-45.62,32.23,-11.27,-0.12,0.76,-0.21
114,-78.69,26.81,-11.69,-0.15,0.78,-0.23
115,-109.68,18.93,-16.72,-0.16,0.77,-0.21
116,-136.78,12.99,-15.71,-0.14,0.76,-0.22
117,-166.37,2.32,-21.74,-0.20,0.78,-0.17
118,-199.19,-0.75,-22.76,-0.13,0.78,-0.21
119,-233.22,-14.53,-25.86,-0.19,0.79,-0.18
120,-272.73,-25.08,-31.15,-0.15,0.79,-0.20
121,-313.30,-40.41,-37.31,-0.15,0.73,-0.20
122,-361.48,-47.88,-45.73,-0.10,0.68,-0.27
123,-401.65,-62.12,-49.30,-0.09,0.49,-0.11
124,-434.99,-67.68,-51.31,-0.05,0.29,-0.02
125,-460.60,-69.30,-52.64,-0.00,0.06,0.15
126,-476.96,-63.59,-54.26,0.04,-0.16,0.34
127,-478.50,-61.88,-51.91,0.02,-0.39,0.61
128,-451.86,-44.24,-40.89,0.04,-0.64,1.07
129,-412.93,-22.29,-25.57,-0.04,-0.77,1.39
130,-375.80,-0.99,-16.63,-0.11,-0.82,1.59
131,-356.50,43.10,-23.27,-0.19,-0.82,1.79
132,-289.37,12.38,-7.63,-0.50,-0.91,2.01
133,-245.71,2.66,0.75,-0.37,-0.71,1.96
134,-199.02,-10.31,5.28,-0.36,-0.72,1.98
135,-157.53,-5.36,3.82,-0.40,-0.68,2.04
136,-107.25,-28.03,7.37,-0.51,-0.73,2.12
137,-67.36,-50.18,5.85,-0.48,-0.66,2.09
138,-40.40,-56.75,-1.74,-0.36,-0.62,2.08
139,-5.07,-70.81,-3.62,-0.40,-0.63,2.12
140,19.51,-64.09,-4.21,-0.29,-0.59,2.09
141,38.60,-70.64,0.37,-0.40,-0.57,2.06
142,47.57,-24.98,6.26,-0.11,-0.48,2.00
143,64.23,-42.43,15.05,-0.45,-0.50,1.96
144,72.35,7.54,13.60,-0.07,-0.45,2.05
145,87.27,36.90,19.37,-0.19,-0.49,2.01
146,121.31,46.78,29.82,-0.27,-0.52,2.05
147,151.68,73.05,31.69,-0.22,-0.53,2.05
148,183.07,78.78,24.89,-0.32,-0.51,1.95
149,210.55,92.38,36.50,-0.25,-0.48,1.84
150,241.57,81.76,38.40,-0.40,-0.47,1.80
151,263.05,75.94,36.93,-0.34,-0.40,1.65
152,275.77,59.30,35.82,-0.40,-0.34,1.50
153,281.92,49.39,32.46,-0.35,-0.27,1.35
154,285.48,46.89,32.90,-0.32,-0.22,1.26
155,289.39,38.20,34.90,-0.36,-0.19,1.19
156,294.20,31.48,37.34,-0.34,-0.15,1.11
157,297.68,35.85,38.84,-0.26,-0.10,1.05
158,306.55,35.56,41.31,-0.24,-0.11,1.03
159,313.80,42.61,41.97,-0.20,-0.06,0.97
160,319.91,42.43,42.82,-0.19,-0.05,0.89
161,324.47,44.90,42.75,-0.17,0.00,0.82
162,326.14,47.33,40.67,-0.14,0.05,0.74
163,325.92,40.00,39.62,-0.16,0.10,0.61
164,309.08,35.77,33.69,-0.17,0.21,0.46
165,289.42,25.18,31.13,-0.21,0.29,0.32
166,264.14,33.63,25.86,-0.09,0.37,0.25
167,226.46,36.38,23.76,-0.13,0.49,-0.00
168,210.09,16.72,30.41,-0.26,0.52,-0.02
169,175.95,19.05,32.72,-0.13,0.66,-0.17
170,143.22,13.50,28.56,-0.15,0.71,-0.23
171,109.11,18.23,26.87,-0.10,0.74,-0.26
172,82.35,19.82,24.81,-0.09,0.73,-0.28
173,55.57,13.36,21.80,-0.10,0.74,-0.24
174,26.64,13.91,14.60,-0.09,0.75,-0.25
175,-0.15,4.64,10.20,-0.08,0.78,-0.26
176,-37.27,3.39,4.52,-0.07,0.80,-0.33
177,-73.50,-4.60,2.02,-0.11,0.81,-0.29
178,-107.54,-9.42,-5.33,-0.12,0.80,-0.26
179,-134.26,-20.84,-7.50,-0.14,0.75,-0.21
180,-161.83,-25.74,-12.50,-0.12,0.77,-0.18
181,-191.57,-38.26,-19.25,-0.17,0.77,-0.16
182,-227.94,-46.17,-24.31,-0.15,0.77,-0.19
183,-267.69,-67.57,-31.04,-0.19,0.76,-0.15
184,-305.79,-85.74,-35.50,-0.12,0.72,-0.14
185,-341.36,-97.76,-44.11,-0.06,0.62,-0.07
186,-373.63,-109.19,-55.91,0.04,0.49,0.03
187,-403.63,-115.80,-70.79,0.15,0.33,0.15
188,-424.46,-116.84,-78.40,0.17,0.08,0.30
189,-418.78,-96.70,-79.63,0.26,-0.18,0.72
190,-400.34,-75.39,-71.83,0.22,-0.43,1.04
191,-389.44,-37.57,-67.89,0.15,-0.54,1.39
192,-351.21,-2.89,-51.25,-0.07,-0.67,1.65
193,-353.08,76.12,-59.10,-0.09,-0.67,1.75
194,-293.71,47.22,-21.22,-0.55,-0.67,1.96
195,-229.25,1.60,-1.50,-0.52,-0.62,1.98
196,-198.46,17.89,11.05,-0.26,-0.49,1.94
197,-158.47,12.50,7.04,-0.38,-0.51,1.96
198,-118.52,-4.56,4.03,-0.37,-0.48,1.95
199,-87.05,-19.66,-5.01,-0.38,-0.40,1.88
200,-59.34,-32.98,-16.14,-0.33,-0.35,1.86
201,-30.64,-56.15,-21.95,-0.36,-0.37,1.86
202,-6.99,-59.08,-25.13,-0.31,-0.36,1.88
203,18.35,-52.78,-21.50,-0.30,-0.39,1.93
204,40.29,-34.69,-14.34,-0.28,-0.37,1.93
205,60.43,-15.92,-2.99,-0.26,-0.38,1.93
206,72.67,14.09,4.75,-0.20,-0.36,1.94
207,90.67,40.15,13.85,-0.22,-0.35,1.91
208,108.95,61.44,20.96,-0.23,-0.32,1.85
209,128.06,77.13,26.26,-0.27,-0.31,1.81
210,151.27,86.15,30.05,-0.29,-0.28,1.73
211,176.03,72.95,29.45,-0.37,-0.30,1.68
212,194.87,85.28,26.78,-0.19,-0.23,1.61
213,219.24,91.02,19.77,-0.32,-0.22,1.51
214,249.66,51.98,13.18,-0.38,-0.24,1.44
215,254.18,78.60,2.92,-0.09,-0.13,1.35
216,270.78,75.01,5.76,-0.32,-0.20,1.32
217,289.51,62.26,16.18,-0.35,-0.16,1.21
218,298.18,57.68,21.33,-0.36,-0.10,1.16
219,296.95,65.62,22.79,-0.28,-0.05,1.03
220,293.19,62.67,25.34,-0.30,0.01,0.90
221,287.51,44.46,30.40,-0.35,0.10,0.75
222,275.19,35.97,30.52,-0.31,0.16,0.67
223,258.49,35.44,28.96,-0.25,0.28,0.54
224,258.05,17.47,32.46,-0.33,0.29,0.57
225,256.49,5.66,32.98,-0.29,0.32,0.49
226,245.18,2.96,30.27,-0.21,0.39,0.40
227,228.38,9.79,25.71,-0.16,0.44,0.35
228,211.11,4.85,24.87,-0.17,0.50,0.24
229,188.43,6.23,21.45,-0.13,0.57,0.18
230,165.18,10.40,17.73,-0.12,0.62,0.11
231,141.01,14.99,15.57,-0.09,0.65,0.06
232,116.61,20.06,12.92,-0.08,0.68,0.01
233,91.89,23.88,8.44,-0.07,0.69,-0.02
234,66.85,30.55,2.60,-0.04,0.70,-0.04
235,45.18,31.91,-1.60,-0.06,0.69,-0.05
236,24.14,28.98,-8.92,-0.12,0.67,-0.06
237,1.25,24.63,-14.76,-0.16,0.68,-0.09
238,-25.21,14.87,-20.81,-0.24,0.68,-0.12
239,-54.61,5.10,-20.35,-0.22,0.70,-0.16
240,-84.46,-8.24,-24.02,-0.29,0.68,-0.16
241,-110.72,-21.50,-24.47,-0.28,0.67,-0.11
242,-136.26,-27.11,-23.94,-0.22,0.66,-0.06
243,-159.13,-34.24,-25.63,-0.26,0.62,0.00
244,-183.42,-44.98,-30.06,-0.29,0.62,0.01
245,-216.05,-56.58,-36.49,-0.27,0.65,-0.03
246,-252.47,-72.90,-35.80,-0.22,0.68,-0.07
247,-290.92,-91.40,-39.79,-0.27,0.63,-0.03
248,-330.41,-101.65,-48.40,-0.25,0.49,0.01
249,-361.59,-110.55,-50.84,-0.14,0.42,0.10
250,-383.80,-120.15,-56.41,-0.08,0.31,0.21
251,-405.74,-124.38,-63.19,-0.00,0.16,0.30
252,-423.69,-127.19,-70.75,0.05,0.01,0.43
253,-438.05,-124.02,-73.92,0.07,-0.15,0.57
254,-438.17,-108.58,-69.39,0.09,-0.34,0.84
255,-425.10,-87.19,-61.33,0.05,-0.49,1.01
256,-401.50,-61.01,-52.43,0.01,-0.56,1.19
257,-375.47,-33.69,-45.47,-0.07,-0.66,1.38
258,-344.17,-18.34,-34.75,-0.22,-0.70,1.52
259,-316.73,-6.82,-24.24,-0.28,-0.70,1.59
260,-287.94,1.30,-20.34,-0.29,-0.65,1.63
261,-262.00,-0.58,-19.36,-0.41,-0.71,1.70
262,-237.47,-21.34,-18.81,-0.42,-0.70,1.70
263,-211.18,-44.56,-19.10,-0.44,-0.69,1.68
264,-186.49,-47.71,-21.39,-0.35,-0.69,1.72
265,-163.62,-66.49,-18.37,-0.36,-0.67,1.67
266,-141.48,-74.60,-18.18,-0.26,-0.69,1.73
267,-117.65,-67.02,-18.56,-0.22,-0.70,1.78
268,-86.75,-52.78,-14.72,-0.19,-0.71,1.81
269,-59.79,-23.42,-12.52,-0.11,-0.69,1.83
270,-29.82,-7.19,-7.08,-0.15,-0.72,1.88
271,-2.03,9.36,3.66,-0.22,-0.70,1.90
272,13.16,2.72,17.76,-0.31,-0.60,1.71
273,36.84,12.70,21.28,-0.10,-0.65,1.75
274,43.48,59.19,20.18,-0.08,-0.56,1.72
275,65.34,40.09,32.50,-0.28,-0.57,1.60
276,77.22,60.14,30.95,-0.09,-0.52,1.59
277,89.74,65.80,30.92,-0.18,-0.54,1.56
278,100.96,73.80,31.45,-0.16,-0.49,1.51
279,112.58,68.31,33.71,-0.23,-0.46,1.44
280,130.41,62.49,35.34,-0.22,-0.46,1.48
281,152.63,64.87,35.01,-0.21,-0.48,1.50
282,176.11,59.56,36.26,-0.26,-0.47,1.48
283,199.94,63.59,34.50,-0.20,-0.47,1.45
284,224.52,56.96,35.13,-0.23,-0.47,1.43
285,250.05,64.27,32.40,-0.17,-0.44,1.41
286,271.88,66.56,29.02,-0.19,-0.40,1.34
287,294.73,57.57,28.69,-0.25,-0.40,1.27
288,306.26,58.21,24.96,-0.22,-0.32,1.17
289,316.52,42.98,25.02,-0.28,-0.31,1.09
290,319.45,29.83,24.73,-0.28,-0.24,0.98
291,321.95,24.58,23.63,-0.25,-0.20,0.90
292,329.15,24.50,22.17,-0.21,-0.17,0.87
293,331.28,23.37,17.15,-0.18,-0.11,0.81
294,328.58,15.33,15.53,-0.19,-0.03,0.71
295,314.99,16.14,13.04,-0.16,0.07,0.56
296,294.89,16.24,13.04,-0.14,0.16,0.45
297,269.36,17.48,12.92,-0.14,0.26,0.35
298,246.49,21.74,11.74,-0.12,0.33,0.29
299,225.86,29.19,10.32,-0.11,0.37,0.26
300,207.39,30.43,9.18,-0.12,0.41,0.22
301,182.82,33.69,6.17,-0.11,0.47,0.16
302,159.36,32.75,2.47,-0.13,0.49,0.14
303,134.26,28.63,-2.90,-0.15,0.51,0.10
304,108.93,25.18,-8.87,-0.15,0.57,0.09
305,82.35,21.65,-14.53,-0.18,0.57,0.09
306,58.55,15.62,-19.85,-0.20,0.59,0.08
307,31.19,11.63,-25.53,-0.22,0.60,0.05
308,6.49,7.42,-28.60,-0.25,0.60,0.08
309,-20.49,-1.10,-30.95,-0.31,0.60,0.06
310,-50.21,-11.21,-32.78,-0.34,0.60,0.06
311,-80.26,-23.98,-34.24,-0.36,0.59,0.08
312,-105.69,-36.46,-33.56,-0.38,0.55,0.12
313,-131.31,-44.72,-32.70,-0.38,0.54,0.15
314,-159.85,-53.71,-33.86,-0.37,0.55,0.16
315,-192.61,-69.86,-37.94,-0.36,0.54,0.15
316,-230.43,-86.61,-41.60,-0.33,0.53,0.11
317,-272.18,-102.70,-46.79,-0.27,0.49,0.10
318,-314.00,-119.95,-52.95,-0.21,0.41,0.12
319,-353.85,-128.55,-60.46,-0.08,0.29,0.16
320,-390.72,-135.18,-68.34,-0.01,0.10,0.27
321,-421.51,-136.96,-74.69,0.04,-0.09,0.38
322,-438.32,-127.05,-74.24,0.12,-0.29,0.59
323,-445.18,-102.82,-71.27,0.13,-0.48,0.79
324,-437.98,-86.40,-62.17,0.06,-0.62,0.96
325,-425.25,-61.65,-47.31,-0.04,-0.74,1.21
326,-398.82,-16.17,-38.38,0.04,-0.79,1.40
327,-363.97,-12.67,-24.82,-0.15,-0.90,1.53
328,-316.00,-5.15,-16.32,-0.16,-0.88,1.64
329,-266.20,-8.90,-12.50,-0.21,-0.90,1.71
330,-229.69,-21.30,-14.79,-0.25,-0.87,1.66
331,-202.17,-36.08,-18.64,-0.32,-0.85,1.64
332,-176.52,-50.76,-20.76,-0.31,-0.86,1.63
333,-148.23,-58.29,-22.85,-0.29,-0.88,1.67
334,-118.78,-63.54,-26.87,-0.26,-0.88,1.72
335,-91.05,-68.79,-27.95,-0.24,-0.84,1.70
336,-67.19,-58.15,-28.58,-0.10,-0.83,1.74
337,-41.68,-46.23,-25.88,-0.15,-0.86,1.76
338,-20.40,-25.80,-24.44,-0.06,-0.80,1.75
339,1.74,-16.90,-16.99,-0.16,-0.81,1.71
340,18.78,4.49,-11.05,-0.09,-0.76,1.72
341,35.37,13.71,1.05,-0.16,-0.74,1.66
342,52.40,19.15,10.98,-0.14,-0.74,1.65
343,63.11,47.79,17.07,-0.06,-0.70,1.64
344,80.93,53.31,28.69,-0.16,-0.70,1.57
345,94.21,65.39,34.21,-0.08,-0.65,1.55
346,109.91,74.53,39.42,-0.13,-0.67,1.56
347,130.85,77.60,45.88,-0.15,-0.67,1.55
348,155.10,84.17,48.58,-0.12,-0.66,1.54
349,183.28,81.42,49.54,-0.15,-0.66,1.53
350,206.55,94.29,43.91,-0.11,-0.62,1.49
351,221.71,99.56,42.35,-0.12,-0.56,1.37
352,233.83,93.04,39.54,-0.15,-0.53,1.28
353,242.79,90.23,35.59,-0.15,-0.48,1.22
354,253.15,83.98,33.11,-0.20,-0.47,1.20
355,266.38,76.63,31.59,-0.22,-0.42,1.14
356,282.93,72.00,30.67,-0.21,-0.41,1.09
357,292.31,73.71,27.33,-0.18,-0.34,1.04
358,300.63,68.20,28.67,-0.19,-0.30,1.00
359,311.79,66.75,29.97,-0.17,-0.28,0.98
360,320.53,71.31,29.92,-0.13,-0.23,0.92
361,325.10,73.05,28.63,-0.17,-0.19,0.85
362,311.01,74.61,23.44,-0.13,-0.11,0.71
363,295.95,58.52,22.63,-0.19,0.01,0.55
364,265.13,52.06,14.52,-0.18,0.11,0.43
365,243.59,46.09,9.27,-0.16,0.16,0.43
366,216.09,29.88,5.04,-0.27,0.25,0.31
367,198.40,13.44,2.09,-0.28,0.34,0.26
368,178.47,8.34,-0.66,-0.23,0.38,0.24
369,158.49,6.18,-2.31,-0.24,0.41,0.23
370,138.98,5.66,-1.94,-0.22,0.43,0.21
371,116.32,8.72,-3.80,-0.21,0.47,0.21
372,94.67,11.44,-4.82,-0.20,0.48,0.19
373,72.02,12.18,-6.09,-0.22,0.50,0.17
374,49.77,11.77,-7.86,-0.24,0.52,0.17
375,28.58,6.84,-9.34,-0.26,0.51,0.16
376,6.56,-0.89,-12.89,-0.27,0.53,0.14
377,-17.53,-10.66,-16.69,-0.30,0.54,0.14
378,-45.33,-22.03,-20.72,-0.33,0.53,0.12
379,-72.09,-36.03,-21.62,-0.35,0.53,0.12
380,-97.62,-45.34,-22.40,-0.35,0.52,0.16
381,-118.49,-54.35,-22.79,-0.34,0.47,0.19
382,-143.54,-64.85,-25.27,-0.32,0.47,0.19
383,-176.15,-74.69,-29.85,-0.30,0.48,0.16
384,-213.02,-87.34,-33.42,-0.27,0.46,0.16
385,-251.48,-100.20,-38.00,-0.23,0.41,0.16
386,-289.79,-114.73,-40.15,-0.18,0.32,0.19
387,-329.97,-113.50,-44.21,-0.08,0.22,0.23
388,-361.39,-114.21,-44.81,-0.03,0.05,0.36
389,-391.56,-121.30,-47.98,-0.06,-0.07,0.41
390,-416.73,-115.30,-45.44,0.02,-0.25,0.52
391,-430.69,-109.57,-42.23,0.00,-0.40,0.66
392,-435.59,-109.66,-37.01,-0.04,-0.55,0.82
393,-434.63,-97.94,-33.02,-0.01,-0.66,0.98
394,-416.35,-101.07,-22.72,-0.16,-0.79,1.18
395,-378.66,-89.54,-14.81,-0.10,-0.87,1.39
396,-330.15,-72.21,-12.49,-0.03,-0.95,1.56
397,-288.27,-51.31,-19.68,-0.12,-0.97,1.75
398,-234.67,-59.50,-25.73,-0.12,-1.01,1.84
399,-189.34,-59.73,-27.80,-0.13,-1.01,1.82
400,-146.31,-49.83,-30.79,-0.14,-0.96,1.86
401,-103.02,-55.33,-30.58,-0.17,-1.01,1.88
402,-72.73,-60.29,-33.69,-0.13,-0.93,1.81
403,-45.21,-56.08,-35.51,-0.11,-0.91,1.78
404,-20.15,-42.63,-36.64,-0.07,-0.87,1.79
405,5.45,-39.13,-28.47,-0.18,-0.87,1.73
406,26.06,-31.94,-23.59,-0.08,-0.80,1.67
407,43.73,-22.58,-17.37,-0.09,-0.80,1.65
408,56.12,-8.43,-9.48,-0.07,-0.74,1.57
409,63.85,5.83,-2.67,-0.08,-0.71,1.52
410,70.92,18.35,6.66,-0.08,-0.69,1.47
411,77.56,31.19,16.05,-0.07,-0.66,1.45
412,84.37,44.24,25.65,-0.07,-0.64,1.44
413,95.25,56.81,32.75,-0.06,-0.63,1.43
414,108.18,71.47,38.53,-0.04,-0.64,1.46
415,123.91,88.00,42.43,-0.08,-0.64,1.47
416,146.64,93.92,48.06,-0.11,-0.65,1.47
417,170.63,101.40,49.79,-0.07,-0.64,1.46
418,191.42,115.13,47.25,-0.09,-0.62,1.42
419,209.62,117.36,45.10,-0.11,-0.58,1.33
420,224.69,105.73,42.40,-0.16,-0.55,1.24
421,240.05,100.79,39.47,-0.14,-0.53,1.22
422,263.18,88.23,35.92,-0.20,-0.52,1.18
423,281.80,79.50,31.88,-0.19,-0.46,1.11
424,301.79,74.32,27.33,-0.19,-0.46,1.07
425,315.15,63.24,23.50,-0.21,-0.38,0.99
426,323.54,46.24,23.25,-0.22,-0.34,0.95
427,323.08,42.63,14.40,-0.21,-0.33,0.86
428,310.17,45.77,17.18,-0.13,-0.22,0.71
429,307.53,41.50,15.04,-0.14,-0.11,0.67
430,290.60,38.96,12.24,-0.17,-0.04,0.57
431,266.92,29.59,9.73,-0.19,0.02,0.52
432,237.10,33.21,9.28,-0.16,0.11,0.44
433,219.65,21.33,11.92,-0.23,0.16,0.40
434,201.45,17.56,7.10,-0.19,0.23,0.37
435,182.50,12.93,6.43,-0.19,0.31,0.30
436,158.61,12.17,1.59,-0.18,0.38,0.26
437,133.68,4.87,-0.35,-0.22,0.42,0.20
438,108.40,-2.49,-1.82,-0.21,0.47,0.17
439,83.66,-9.89,-2.56,-0.23,0.48,0.15
440,57.07,-13.21,-4.56,-0.20,0.52,0.15
441,30.98,-14.90,-5.77,-0.20,0.51,0.16
442,6.44,-14.53,-7.08,-0.19,0.51,0.18
443,-18.17,-15.45,-9.19,-0.19,0.52,0.19
444,-45.65,-16.43,-11.85,-0.19,0.51,0.20
445,-76.96,-22.76,-13.92,-0.25,0.51,0.17
446,-103.77,-23.92,-15.39,-0.24,0.50,0.20
447,-125.79,-30.87,-16.08,-0.26,0.44,0.27
448,-145.92,-38.84,-17.85,-0.28,0.41,0.28
449,-172.17,-50.14,-20.08,-0.29,0.40,0.24
450,-205.68,-59.68,-25.48,-0.22,0.41,0.22
451,-239.63,-79.07,-28.50,-0.22,0.36,0.20
452,-275.91,-92.18,-35.27,-0.12,0.32,0.19
453,-307.89,-103.13,-42.61,-0.05,0.24,0.20
454,-343.19,-107.60,-51.77,0.05,0.13,0.22
455,-373.04,-109.21,-62.23,0.14,-0.03,0.30
456,-395.95,-111.77,-71.36,0.17,-0.21,0.40
457,-412.72,-107.79,-80.31,0.16,-0.40,0.62
458,-428.43,-105.66,-82.37,0.03,-0.59,0.78
459,-424.75,-104.40,-71.05,-0.06,-0.75,0.95
460,-405.68,-92.64,-53.25,-0.13,-0.84,1.21
461,-377.85,-54.24,-48.58,-0.11,-0.95,1.55
462,-331.34,-39.47,-40.37,0.10,-1.01,1.76
463,-296.63,-31.40,-32.35,0.03,-0.90,1.63
464,-249.98,-44.31,-31.60,-0.01,-1.00,1.75
465,-211.63,-41.94,-39.44,0.12,-0.96,1.72
466,-179.36,-33.77,-49.97,0.08,-0.96,1.68
467,-154.18,-29.65,-50.21,-0.06,-0.98,1.72
468,-125.15,-41.21,-41.54,-0.17,-1.02,1.72
469,-102.66,-58.23,-32.56,-0.22,-1.02,1.70
470,-83.10,-57.18,-28.09,-0.17,-0.99,1.72
471,-49.65,-62.64,-13.34,-0.16,-1.05,1.76
472,-23.56,-52.00,-9.77,-0.03,-0.92,1.70
473,7.21,-19.11,-8.40,0.12,-0.90,1.69
474,41.07,-1.42,-3.48,0.06,-0.89,1.67
475,70.47,14.99,0.78,0.05,-0.87,1.62
476,92.46,41.65,7.54,0.07,-0.84,1.56
477,115.53,49.65,18.75,-0.06,-0.86,1.59
478,137.86,66.92,25.89,-0.03,-0.85,1.54
479,168.61,93.18,32.67,0.00,-0.87,1.58
480,187.07,115.89,35.04,-0.00,-0.83,1.56
481,209.66,123.37,38.26,-0.07,-0.84,1.54
482,232.81,137.45,40.87,-0.01,-0.84,1.49
483,244.14,129.85,44.24,-0.09,-0.80,1.38
484,259.40,122.15,43.13,-0.08,-0.77,1.31
485,273.94,115.21,41.22,-0.12,-0.73,1.25
486,283.47,107.89,38.44,-0.09,-0.68,1.19
487,301.13,91.79,37.24,-0.15,-0.67,1.16
488,314.95,79.94,35.65,-0.16,-0.59,1.07
489,324.89,73.10,32.11,-0.13,-0.51,0.98
490,330.24,65.15,30.09,-0.13,-0.45,0.90
491,326.73,65.36,22.61,-0.09,-0.37,0.83
492,316.66,66.09,17.71,-0.13,-0.28,0.77
493,305.79,60.18,15.56,-0.15,-0.21,0.68
494,294.23,55.45,16.79,-0.17,-0.13,0.65
495,285.08,51.48,16.50,-0.19,-0.11,0.62
496,272.87,47.89,13.94,-0.22,-0.06,0.59
497,256.73,46.92,16.82,-0.22,0.03,0.55
498,239.02,45.08,15.51,-0.22,0.08,0.50
499,216.34,43.22,10.06,-0.23,0.15,0.43
500,190.09,35.82,11.10,-0.27,0.23,0.38
501,164.64,19.02,11.74,-0.32,0.29,0.32
502,140.09,12.08,9.79,-0.27,0.34,0.30
503,117.10,-4.58,10.11,-0.32,0.40,0.26
504,93.68,-15.53,9.66,-0.31,0.44,0.24
505,72.93,-24.43,11.19,-0.30,0.45,0.23
506,50.89,-34.14,12.63,-0.31,0.47,0.23
507,27.79,-41.83,14.67,-0.28,0.50,0.25
508,3.42,-47.22,14.84,-0.24,0.50,0.25
509,-24.92,-52.75,13.57,-0.22,0.51,0.25
510,-57.63,-60.17,13.71,-0.21,0.54,0.23
511,-90.66,-55.27,10.37,-0.14,0.55,0.24
512,-117.31,-58.89,9.11,-0.15,0.50,0.29
513,-145.82,-59.76,5.66,-0.14,0.48,0.32
514,-173.59,-61.44,1.71,-0.10,0.46,0.28
515,-206.89,-56.67,-5.47,-0.06,0.47,0.30
516,-239.71,-58.21,-11.21,-0.07,0.41,0.27
517,-270.82,-61.22,-20.92,-0.03,0.37,0.25
518,-293.28,-60.85,-29.97,0.03,0.21,0.38
519,-316.23,-49.21,-45.33,0.13,0.16,0.34
520,-328.92,-55.74,-54.60,0.10,0.02,0.39
521,-351.94,-44.15,-67.54,0.17,-0.07,0.45
522,-370.58,-42.27,-81.11,0.14,-0.20,0.47
523,-388.34,-62.38,-91.85,0.07,-0.39,0.53
524,-391.89,-72.02,-92.50,0.05,-0.53,0.78
525,-382.46,-94.09,-87.85,-0.08,-0.71,0.84
526,-357.82,-124.69,-68.85,-0.16,-0.85,1.11
527,-333.42,-123.25,-55.30,-0.10,-0.91,1.32
528,-303.33,-112.06,-43.18,-0.04,-0.94,1.50
529,-274.96,-98.70,-30.09,-0.00,-0.96,1.61
530,-242.46,-87.02,-21.24,0.04,-0.94,1.74
531,-215.39,-68.96,-17.80,0.10,-0.92,1.77
532,-197.97,-47.76,-23.21,0.12,-0.92,1.80
533,-169.74,-34.60,-12.29,0.11,-0.94,1.73
534,-150.69,-44.24,-10.35,-0.01,-0.83,1.61
535,-131.13,-36.92,-11.56,0.07,-0.83,1.61
536,-111.62,-36.67,-13.77,0.02,-0.83,1.54
537,-92.63,-18.17,-16.20,0.09,-0.82,1.54
538,-70.96,-5.36,-15.33,-0.00,-0.79,1.51
539,-44.98,2.31,-10.56,0.02,-0.78,1.47
540,-22.03,10.98,-7.44,0.01,-0.77,1.48
541,-1.83,24.89,-3.42,-0.03,-0.76,1.46
542,20.00,22.70,1.42,-0.11,-0.77,1.44
543,39.25,32.03,5.01,-0.03,-0.79,1.47
544,53.21,51.34,5.88,0.01,-0.75,1.47
545,76.78,42.00,17.65,-0.15,-0.83,1.48
546,96.37,48.03,22.75,-0.01,-0.76,1.43
547,114.31,52.87,26.05,-0.03,-0.80,1.44
548,124.21,56.70,24.98,-0.02,-0.74,1.37
549,136.05,57.39,25.45,-0.04,-0.72,1.31
550,147.92,52.67,24.98,-0.05,-0.71,1.28
551,154.96,53.11,22.78,-0.08,-0.68,1.25
552,165.30,49.50,23.05,-0.11,-0.66,1.21
553,179.66,39.94,25.39,-0.15,-0.64,1.20
554,193.76,42.79,26.93,-0.11,-0.61,1.20
555,216.46,45.11,33.22,-0.14,-0.64,1.25
556,240.78,48.44,38.70,-0.13,-0.62,1.26
557,259.05,54.60,39.89,-0.09,-0.60,1.26
558,268.67,60.64,36.70,-0.10,-0.52,1.16
559,275.56,88.12,32.63,0.03,-0.56,1.19
560,283.13,80.00,34.27,-0.13,-0.52,1.14
561,281.21,68.67,30.56,-0.15,-0.44,1.09
562,267.89,79.89,27.97,-0.06,-0.34,0.98
563,252.78,77.68,28.46,-0.14,-0.32,0.95
564,239.86,73.80,32.05,-0.20,-0.27,0.93
565,234.46,69.97,36.00,-0.19,-0.24,0.95
566,240.24,64.63,38.41,-0.18,-0.25,0.99
567,248.02,63.44,39.92,-0.16,-0.25,0.99
568,254.31,69.59,35.40,-0.12,-0.20,0.93
569,258.89,71.44,30.31,-0.13,-0.15,0.93
570,260.69,71.82,28.14,-0.12,-0.12,0.87
571,254.84,73.25,24.79,-0.15,-0.04,0.83
572,243.27,69.63,25.31,-0.20,0.01,0.76
573,224.43,65.05,25.33,-0.22,0.10,0.63
574,196.55,68.55,20.52,-0.17,0.21,0.53
575,185.60,52.56,20.85,-0.26,0.23,0.55
576,175.54,49.98,18.23,-0.22,0.27,0.50
577,161.01,48.55,12.43,-0.23,0.31,0.42
578,149.85,42.47,9.59,-0.24,0.33,0.44
579,136.31,40.93,7.04,-0.24,0.36,0.40
580,120.66,35.36,6.58,-0.27,0.40,0.36
581,99.92,22.52,6.34,-0.30,0.43,0.34
582,79.71,15.02,7.16,-0.31,0.48,0.27
583,54.15,18.43,6.11,-0.26,0.52,0.28
584,36.18,4.93,9.98,-0.36,0.51,0.29
585,18.20,-11.69,11.53,-0.34,0.53,0.27
586,-2.69,-18.41,10.00,-0.30,0.55,0.29
587,-27.15,-30.81,8.14,-0.28,0.60,0.24
588,-55.73,-34.85,4.24,-0.23,0.62,0.23
589,-80.50,-42.96,3.05,-0.24,0.60,0.26
590,-102.47,-49.65,2.27,-0.21,0.54,0.31
591,-124.14,-54.18,-0.49,-0.18,0.54,0.30
592,-152.89,-59.01,-4.78,-0.15,0.55,0.29
593,-188.53,-61.19,-11.31,-0.12,0.57,0.26
594,-226.05,-69.45,-16.75,-0.10,0.53,0.22
595,-264.26,-77.53,-24.82,-0.06,0.48,0.20
596,-302.27,-79.62,-35.21,0.00,0.42,0.16
597,-333.69,-83.28,-45.13,0.06,0.32,0.18
598,-362.37,-78.72,-57.88,0.13,0.21,0.16
599,-390.14,-83.65,-68.08,0.08,0.01,0.29
600,-418.46,-69.40,-79.33,0.16,-0.20,0.34
601,-431.40,-85.50,-79.30,0.00,-0.48,0.58
602,-438.40,-58.64,-79.92,0.06,-0.62,0.75
603,-409.54,-55.39,-58.44,-0.18,-0.83,1.07
604,-385.62,-27.07,-52.98,-0.08,-0.88,1.27
605,-357.60,26.81,-57.50,0.05,-0.96,1.37
606,-274.31,-43.50,-21.97,-0.36,-1.14,1.93
607,-223.07,-48.47,-18.06,-0.00,-0.97,1.95
608,-185.86,-29.65,-26.00,0.12,-0.88,1.95
609,-155.30,-24.95,-36.60,0.07,-0.86,1.93
610,-127.47,-29.07,-43.51,-0.02,-0.82,1.86
611,-101.74,-34.87,-46.34,-0.10,-0.83,1.83
612,-75.74,-57.11,-38.23,-0.22,-0.82,1.76
613,-49.48,-64.55,-27.11,-0.23,-0.81,1.70
614,-25.80,-63.16,-16.75,-0.22,-0.73,1.61
615,-3.36,-53.44,-3.95,-0.13,-0.69,1.52
616,24.38,-36.70,5.66,-0.11,-0.65,1.50
617,46.90,-10.09,10.72,-0.03,-0.64,1.48
618,69.88,10.64,17.34,-0.05,-0.63,1.45
619,95.10,27.76,24.85,-0.05,-0.60,1.41
620,107.24,41.95,27.45,-0.08,-0.60,1.38
621,126.79,53.13,32.50,-0.13,-0.65,1.45
622,152.67,59.53,34.21,-0.12,-0.63,1.45
623,176.08,55.30,31.28,-0.23,-0.69,1.49
624,195.44,64.73,25.36,-0.14,-0.63,1.47
625,218.70,65.86,21.27,-0.12,-0.69,1.52
626,239.57,63.56,22.98,-0.13,-0.63,1.42
627,250.53,67.91,24.82,-0.12,-0.59,1.37
628,267.68,73.42,27.25,-0.11,-0.60,1.32
629,274.21,77.04,23.89,-0.11,-0.47,1.22
630,282.87,76.41,22.09,-0.13,-0.45,1.17
631,288.11,65.69,20.38,-0.17,-0.38,1.06
632,287.66,60.20,20.43,-0.16,-0.32,1.01
633,288.63,64.81,21.76,-0.19,-0.29,0.99
634,289.56,64.55,23.79,-0.20,-0.22,0.93
635,292.70,53.86,29.01,-0.23,-0.15,0.87
636,274.21,57.68,21.94,-0.12,-0.06,0.73
637,249.36,47.08,22.99,-0.17,0.08,0.64
638,218.75,57.48,18.93,-0.16,0.14,0.65
639,194.50,46.03,18.78,-0.23,0.22,0.57
640,167.10,53.50,14.38,-0.17,0.30,0.58
641,147.02,59.83,14.38,-0.20,0.32,0.59
642,126.89,51.68,16.29,-0.31,0.34,0.52
643,118.60,55.05,18.53,-0.29,0.32,0.61
644,109.51,51.69,21.76,-0.35,0.29,0.69
645,105.95,40.41,24.26,-0.38,0.26,0.72
646,103.21,34.76,24.40,-0.35,0.26,0.76
647,97.59,26.64,24.37,-0.35,0.26,0.79
648,93.65,16.73,25.30,-0.36,0.26,0.82
649,91.45,8.09,26.23,-0.33,0.27,0.86
650,91.62,9.33,26.26,-0.28,0.26,0.89
651,90.23,8.63,23.62,-0.27,0.27,0.90
652,83.94,16.29,21.54,-0.22,0.32,0.85
653,75.88,8.76,22.11,-0.26,0.36,0.80
654,64.37,16.82,19.33,-0.22,0.38,0.76
655,49.25,7.54,17.25,-0.25,0.43,0.70
656,36.69,7.25,14.49,-0.21,0.43,0.72
657,30.23,0.20,13.80,-0.25,0.39,0.77
658,27.80,3.76,12.49,-0.21,0.34,0.81
659,26.53,3.24,11.50,-0.22,0.33,0.83
660,24.03,2.79,9.89,-0.21,0.33,0.83
661,19.91,2.02,8.69,-0.20,0.36,0.81
662,15.82,-0.47,7.47,-0.22,0.38,0.81
663,16.99,-2.38,6.32,-0.22,0.34,0.86
664,23.18,-5.42,6.08,-0.23,0.29,0.93
665,29.85,-9.27,5.62,-0.23,0.29,0.93
666,32.66,-7.30,4.50,-0.20,0.30,0.92
667,31.28,-5.82,3.11,-0.19,0.31,0.91
668,31.74,0.00,3.31,-0.20,0.30,0.93
669,29.89,-0.11,5.25,-0.25,0.32,0.91
670,28.52,-1.83,7.79,-0.23,0.33,0.89
671,24.05,-0.18,6.96,-0.22,0.37,0.85
672,20.26,0.35,5.77,-0.21,0.39,0.83
673,19.74,-0.21,4.38,-0.20,0.38,0.83
674,18.32,-1.95,3.15,-0.20,0.38,0.81
675,14.96,-3.01,1.50,-0.19,0.40,0.79
676,10.52,-2.31,0.31,-0.18,0.40,0.78
677,3.92,0.61,-2.06,-0.17,0.43,0.75
678,-3.82,0.00,-4.08,-0.20,0.43,0.72
679,-12.41,-1.92,-4.60,-0.20,0.44,0.69
680,-25.60,1.30,-7.50,-0.18,0.47,0.67
681,-34.34,-3.68,-6.99,-0.23,0.46,0.66
682,-44.61,-7.11,-6.89,-0.22,0.46,0.66
683,-53.63,-7.50,-7.37,-0.22,0.45,0.68
684,-61.85,-10.63,-7.73,-0.23,0.44,0.69
685,-71.27,-12.72,-9.05,-0.22,0.46,0.69
686,-84.17,-16.49,-11.71,-0.21,0.49,0.65
687,-102.63,-19.60,-16.44,-0.19,0.53,0.59
688,-127.25,-22.72,-21.98,-0.17,0.57,0.52
689,-158.84,-25.02,-29.37,-0.15,0.60,0.43
690,-192.09,-29.13,-37.16,-0.15,0.60,0.37
691,-225.24,-34.41,-44.17,-0.14,0.57,0.29
692,-260.53,-41.92,-52.56,-0.14,0.50,0.26
693,-291.04,-50.72,-60.50,-0.11,0.42,0.29
694,-324.46,-47.94,-69.98,-0.08,0.32,0.24
695,-344.50,-61.66,-73.36,-0.12,0.17,0.28
696,-376.53,-69.77,-82.41,-0.11,0.09,0.23
697,-402.89,-62.41,-89.18,-0.03,-0.06,0.28
698,-422.41,-66.64,-91.95,-0.07,-0.27,0.35
699,-435.07,-70.66,-91.60,-0.08,-0.48,0.50
700,-431.79,-73.19,-83.91,-0.17,-0.72,0.73
701,-418.24,-65.13,-72.26,-0.25,-0.79,0.91
702,-406.27,-35.50,-66.03,-0.15,-0.87,1.12
703,-378.99,-46.08,-47.89,-0.39,-0.96,1.37
704,-346.92,-68.05,-22.96,-0.30,-1.04,1.64
705,-305.94,-73.80,-5.56,-0.19,-1.05,1.85
706,-272.92,-63.69,-1.95,-0.04,-1.01,1.93
707,-217.39,-85.66,12.79,-0.12,-1.01,2.06
708,-181.21,-72.23,6.15,0.04,-0.94,2.02
709,-144.15,-68.44,0.69,0.01,-0.97,2.06
710,-108.27,-65.95,-6.40,-0.08,-0.93,2.06
711,-57.86,-65.25,-7.02,-0.09,-0.96,2.03
712,-16.17,-30.32,-9.40,-0.00,-0.96,2.03
713,32.18,-24.53,-1.25,-0.16,-0.91,1.97
714,85.01,-26.60,9.80,-0.16,-0.92,1.91
715,130.44,-12.89,18.60,-0.07,-0.88,1.83
716,169.30,-5.83,22.72,-0.10,-0.87,1.74
717,197.22,24.00,16.93,-0.05,-0.80,1.64
718,228.64,63.94,24.00,0.11,-0.78,1.54
719,248.15,83.16,18.96,0.05,-0.74,1.48
720,273.68,100.69,14.81,0.06,-0.73,1.42
721,291.91,109.65,10.18,-0.03,-0.72,1.32
722,308.49,108.52,11.36,-0.10,-0.73,1.33
723,322.49,107.76,15.95,-0.16,-0.71,1.25
724,330.55,104.38,19.95,-0.17,-0.65,1.18
725,341.13,87.57,27.54,-0.20,-0.61,1.08
726,322.61,94.89,19.63,-0.06,-0.47,0.92
727,307.13,83.37,18.70,-0.17,-0.35,0.80
728,285.30,76.44,14.06,-0.16,-0.19,0.69
729,246.70,77.22,0.73,-0.18,-0.10,0.56
730,235.19,65.16,5.53,-0.24,0.04,0.52
731,215.18,29.54,7.85,-0.35,0.11,0.27
732,173.44,50.50,-6.69,-0.13,0.29,0.30
733,142.44,50.11,-3.40,-0.31,0.28,0.27
734,109.37,41.60,-0.27,-0.33,0.36,0.22
735,80.58,40.00,0.63,-0.32,0.37,0.29
736,51.57,36.17,3.85,-0.35,0.38,0.28
737,25.10,35.15,6.98,-0.38,0.38,0.32
738,-1.74,24.61,9.83,-0.42,0.37,0.34
739,-29.71,13.57,10.21,-0.42,0.39,0.35
740,-57.28,-1.69,10.47,-0.44,0.36,0.36
741,-81.51,-16.90,11.60,-0.41,0.33,0.40
742,-103.83,-28.02,11.54,-0.36,0.27,0.45
743,-121.85,-39.95,10.56,-0.34,0.21,0.50
744,-142.03,-44.12,7.56,-0.27,0.19,0.50
745,-161.57,-41.95,3.77,-0.21,0.16,0.54
746,-177.31,-38.00,-0.90,-0.14,0.10,0.55
747,-195.42,-28.12,-10.23,-0.07,0.10,0.55
748,-205.19,-33.71,-15.60,-0.11,-0.00,0.62
749,-218.89,-26.53,-25.16,-0.08,-0.05,0.63
750,-220.63,-33.86,-24.17,-0.16,-0.23,0.79
751,-227.25,-13.47,-38.46,0.00,-0.26,0.84
752,-210.56,-33.51,-25.21,-0.24,-0.51,1.06
753,-186.67,-48.58,-10.87,-0.31,-0.51,1.24
754,-160.31,-66.61,2.52,-0.31,-0.60,1.39
755,-136.75,-54.96,3.86,-0.16,-0.59,1.47
756,-110.29,-68.72,13.80,-0.22,-0.62,1.54
757,-91.62,-51.40,11.27,-0.11,-0.56,1.59
758,-67.65,-42.79,12.11,-0.08,-0.52,1.60
759,-43.76,-44.08,12.21,-0.10,-0.51,1.56
760,-25.74,-33.05,6.29,0.00,-0.46,1.54
761,-16.35,-6.66,-2.98,-0.04,-0.47,1.58
762,12.29,-14.08,4.11,-0.14,-0.44,1.44
763,29.59,-6.89,1.95,-0.08,-0.35,1.31
764,33.74,5.62,-2.85,-0.06,-0.30,1.15
765,25.79,19.16,-6.17,-0.11,-0.22,1.04
766,18.02,27.40,-3.74,-0.18,-0.21,0.98
767,11.56,22.09,1.73,-0.25,-0.22,0.93
768,8.23,17.59,4.82,-0.24,-0.21,0.94
769,6.52,12.96,7.36,-0.26,-0.24,0.96
770,5.51,8.24,8.95,-0.25,-0.24,0.97
771,3.27,5.83,8.49,-0.23,-0.25,1.02
772,0.46,2.55,8.70,-0.23,-0.26,1.03
773,-1.45,-0.02,9.65,-0.22,-0.27,1.07
774,-0.27,-3.45,11.42,-0.22,-0.29,1.10
775,2.17,-3.10,11.19,-0.20,-0.31,1.16
776,6.61,-3.13,11.59,-0.20,-0.32,1.20
777,12.47,-4.37,12.96,-0.21,-0.34,1.23
778,19.47,-6.72,14.31,-0.21,-0.35,1.26
