,gyro_x,gyro_y,gyro_z,acce_x,acce_y,acce_z
0,-5.15,-16.12,0.07,0.21,0.55,"30.98[0m
"
1,236.99,-5.83,-16.61,0.11,0.26,0.53
2,237.77,-3.48,-17.39,0.12,0.23,0.45
3,232.98,-4.52,-16.08,0.09,0.33,0.37
4,225.13,-7.79,-13.02,0.10,0.37,0.25
5,216.03,-8.93,-17.51,0.09,0.42,0.14
6,207.34,-7.13,-15.04,0.13,0.58,-0.02
7,184.60,-7.71,-17.33,0.13,0.71,-0.16
8,163.71,-0.93,-17.28,0.13,0.76,-0.30
9,135.85,10.95,-17.18,0.12,0.94,-0.21
10,88.82,18.78,-16.24,0.14,1.11,-0.47
11,31.92,27.47,-24.96,0.00,0.91,-0.41
12,41.56,36.67,-15.33,0.05,0.97,-0.22
13,0.34,52.56,-7.39,0.04,1.20,-0.49
14,-15.63,61.82,0.32,0.18,0.91,-0.51
15,-46.63,68.40,2.53,0.06,0.93,-0.55
16,-77.21,79.83,3.36,0.05,0.96,-0.48
17,-119.51,68.08,-0.84,-0.03,0.90,-0.61
18,-148.38,76.64,3.56,-0.02,0.84,-0.61
19,-181.44,68.32,-4.31,-0.18,0.78,-0.40
20,-228.15,56.21,2.92,-0.23,0.98,-0.52
21,-268.12,37.42,-8.47,-0.38,0.85,-0.43
22,-301.39,6.37,2.15,-0.36,0.73,-0.27
23,-341.28,-14.08,-0.08,-0.34,0.77,-0.47
24,-377.97,-40.49,4.56,-0.35,0.74,-0.45
25,-425.50,-68.99,5.27,-0.32,0.68,-0.54
26,-473.98,-124.06,-12.67,-0.44,0.33,-0.22
27,-480.43,-145.21,-13.05,-0.39,-0.28,-0.50
28,-497.48,-164.09,-4.27,0.08,-0.27,-0.06
29,-500.27,-169.76,12.35,0.13,-0.63,0.23
30,-500.27,-165.42,39.01,0.21,-0.94,0.47
31,-491.66,-173.27,40.52,0.26,-1.31,0.80
32,-478.15,-163.16,63.39,0.43,-1.45,1.02
33,-483.85,-133.28,81.11,0.64,-1.34,1.23
34,-416.29,-125.86,111.48,0.64,-1.44,2.15
35,-498.08,88.44,142.84,1.09,-1.20,1.27
36,-349.21,-116.20,83.31,-0.85,-2.74,2.87
37,-278.76,-7.07,73.92,0.84,-1.73,2.38
38,-215.85,-6.06,58.08,0.55,-1.69,3.21
39,-148.99,-16.40,38.00,0.48,-1.72,3.43
40,-76.63,-53.44,16.66,0.38,-1.70,3.42
41,6.47,-64.78,4.75,0.43,-1.76,3.35
42,71.85,-48.60,9.11,0.65,-1.68,3.21
43,61.37,10.05,-10.56,0.88,-1.10,3.09
44,113.97,3.10,-35.80,0.69,-1.27,2.74
45,137.80,39.44,-50.17,0.82,-1.14,2.45
46,152.37,42.17,-44.21,0.79,-0.87,2.44
47,111.04,96.32,-26.05,1.06,-0.70,1.95
48,127.19,110.35,-37.01,0.51,-0.77,2.12
49,169.33,144.73,-50.44,0.44,-0.92,2.05
50,332.49,63.88,-60.61,0.04,-1.68,2.18
51,317.04,118.70,-36.40,0.49,-0.96,2.38
52,370.87,66.05,-61.94,0.29,-1.04,2.10
53,387.80,102.76,-48.69,0.25,-1.00,1.97
54,384.03,98.44,-44.99,0.16,-0.72,1.58
55,366.85,113.34,-37.53,0.21,-0.53,1.12
56,345.76,104.76,-40.24,0.11,-0.36,0.82
57,322.18,100.47,-40.20,0.12,-0.21,0.66
58,324.84,92.06,-47.08,0.06,-0.27,0.70
59,321.15,95.40,-48.37,0.05,-0.22,0.88
60,339.08,87.97,-52.63,0.00,-0.26,0.88
61,347.65,62.05,-66.64,-0.06,-0.21,0.81
62,338.52,42.81,-74.63,-0.12,-0.14,0.63
63,327.16,28.93,-77.24,-0.19,-0.04,0.42
64,303.56,19.25,-75.44,-0.27,0.06,0.25
65,283.11,4.98,-71.48,-0.35,0.19,0.13
66,265.11,-7.42,-66.99,-0.35,0.28,0.05
67,245.65,12.89,-55.31,-0.36,0.38,0.09
68,215.76,5.28,-43.42,-0.31,0.40,-0.01
69,199.44,6.92,-38.00,-0.34,0.52,-0.10
70,173.57,8.02,-27.13,-0.28,0.62,-0.26
71,142.85,13.59,-10.98,-0.30,0.71,-0.33
72,117.83,13.50,-6.35,-0.30,0.76,-0.38
73,80.82,32.44,0.38,-0.25,0.91,-0.37
74,56.23,47.05,14.56,-0.32,0.81,-0.15
75,35.39,30.23,9.86,-0.46,0.77,-0.90
76,1.74,34.55,22.55,-0.34,0.95,-0.36
77,-25.37,30.95,34.95,-0.32,0.93,-0.80
78,-61.71,26.50,41.65,-0.43,1.03,-0.53
79,-104.50,7.82,50.75,-0.33,1.08,-0.71
80,-132.26,0.06,43.42,-0.26,0.86,-0.67
81,-152.34,-9.10,46.32,-0.28,0.88,-0.41
82,-195.15,-13.82,48.02,-0.19,0.95,-0.54
83,-271.73,-15.21,42.24,-0.27,0.93,-0.65
84,-282.14,-23.77,60.87,-0.27,0.77,-0.59
85,-325.62,-50.34,39.51,-0.34,0.70,-0.99
86,-371.22,-56.76,55.18,-0.16,0.61,-0.50
87,-408.46,-66.67,51.28,-0.28,0.43,-0.78
88,-444.47,-76.60,52.17,-0.10,0.28,-0.39
89,-500.27,-77.62,37.59,-0.13,-0.26,-0.53
90,-500.27,-73.73,66.52,-0.00,-0.23,-0.13
91,-500.27,-75.33,76.35,0.02,-0.65,-0.09
92,-500.27,-86.26,86.82,0.06,-0.71,0.62
93,-500.27,-91.25,68.44,-0.04,-1.47,0.19
94,-451.74,-112.96,83.39,0.13,-1.72,1.67
95,-397.44,-116.87,90.93,0.31,-1.68,2.02
96,-338.02,-90.82,103.89,0.44,-1.66,2.45
97,-264.72,-73.68,92.84,0.55,-1.72,2.80
98,-223.91,-32.49,88.67,0.62,-1.55,3.06
99,-171.54,-6.17,65.19,0.62,-1.38,3.01
100,-93.28,-27.08,46.76,0.36,-1.51,2.80
101,-76.75,38.44,39.63,0.84,-1.04,2.52
102,-193.21,38.00,29.01,0.61,-0.77,2.34
103,-40.93,-12.95,13.27,0.34,-1.44,2.26
104,-22.87,-23.39,-16.73,0.29,-0.73,2.09
105,23.63,-44.09,4.15,-0.00,-1.00,2.25
106,111.89,-75.91,5.69,0.23,-1.13,2.22
107,53.69,-47.83,-8.53,0.37,-0.73,2.23
108,117.34,-21.50,-41.63,0.72,-1.31,2.29
109,119.42,10.64,-51.02,0.72,-0.90,2.32
110,189.79,22.08,-40.26,0.55,-1.01,2.35
111,230.40,-13.66,-52.27,0.34,-0.84,2.27
112,203.44,144.78,-17.83,0.64,-0.93,1.88
113,264.20,69.34,-12.41,-0.08,-1.05,2.16
114,305.24,72.67,-11.71,0.33,-0.85,1.63
115,293.83,101.47,-11.48,0.38,-0.53,1.35
116,293.40,120.72,-15.42,0.46,-0.45,0.98
117,268.03,139.76,-18.84,0.22,-0.31,1.01
118,265.27,140.79,-23.15,-0.00,-0.41,1.10
119,276.96,127.69,-28.26,-0.11,-0.50,1.22
120,296.37,106.76,-29.89,-0.08,-0.43,1.22
121,316.46,81.11,-39.82,-0.15,-0.43,1.12
122,331.68,43.25,-45.62,-0.12,-0.33,0.93
123,333.79,27.24,-49.86,-0.13,-0.32,0.85
124,306.44,68.95,-48.34,-0.14,-0.16,0.74
125,311.25,54.67,-38.12,-0.31,-0.19,0.51
126,288.41,54.21,-26.35,-0.25,0.08,0.32
127,263.02,43.88,-18.92,-0.27,0.27,0.19
128,248.12,39.91,-11.66,-0.25,0.31,0.17
129,229.24,45.05,-7.54,-0.17,0.38,0.21
130,220.95,48.81,-3.02,-0.18,0.37,0.17
131,201.88,50.00,2.29,-0.18,0.49,0.08
132,185.27,48.69,0.41,-0.15,0.64,0.01
133,165.02,48.99,11.44,-0.18,0.55,-0.08
134,124.70,35.01,3.97,-0.26,0.64,-0.07
135,111.94,43.94,24.81,-0.11,0.57,-0.04
136,93.36,25.89,13.15,-0.22,0.58,-0.10
137,74.64,29.07,28.29,-0.19,0.65,-0.13
138,47.02,3.45,8.90,-0.54,0.65,-0.23
139,31.59,30.44,28.08,-0.20,0.71,-0.10
140,9.89,5.95,25.80,-0.37,0.71,-0.15
141,-35.50,3.65,44.37,-0.33,0.82,-0.41
142,-41.01,-9.13,39.86,-0.31,0.69,-0.32
143,-75.54,-22.21,42.52,-0.33,0.82,-0.29
144,-134.64,-21.88,51.10,-0.24,1.01,-0.47
145,-151.48,-30.06,48.06,-0.20,0.83,-0.41
146,-183.95,-36.06,53.48,-0.18,0.86,-0.41
147,-228.38,-41.11,54.32,-0.12,0.77,-0.60
148,-246.69,-61.76,59.48,-0.12,0.65,-0.42
149,-297.24,-66.44,61.13,-0.19,0.71,-0.25
150,-329.24,-82.92,63.31,-0.09,0.52,-0.40
151,-387.85,-88.37,58.60,-0.03,0.56,-0.52
152,-410.66,-93.51,65.86,0.25,0.48,-0.54
153,-423.18,-113.71,59.80,0.12,0.01,-0.26
154,-487.74,-95.07,52.32,0.30,-0.13,-0.35
155,-489.56,-91.25,62.85,0.45,-0.63,0.45
156,-500.27,-68.12,54.79,0.65,-0.73,0.49
157,-500.27,-66.89,32.14,0.54,-1.12,1.11
158,-455.11,-70.55,13.16,0.32,-1.51,1.26
159,-390.05,-96.70,12.41,0.22,-1.81,1.97
160,-341.74,-73.31,25.71,0.34,-1.63,2.25
161,-305.45,-27.10,67.40,0.29,-1.52,2.73
162,-243.76,-18.34,58.78,0.35,-1.48,2.77
163,-186.17,-13.76,52.15,0.44,-1.40,2.87
164,-126.58,-14.58,44.66,0.45,-1.36,2.88
165,-83.36,0.26,27.22,0.51,-1.27,2.79
166,-85.80,73.56,12.58,0.58,-1.08,2.63
167,-89.76,-20.78,-1.66,-0.36,-0.93,2.80
168,2.72,1.85,-22.20,0.31,-1.02,2.09
169,-11.07,-65.73,-27.15,0.03,-0.87,2.16
170,1.89,-64.23,-23.98,0.24,-1.31,2.07
171,66.76,-18.66,-49.88,0.41,-1.08,1.99
172,79.15,20.12,-46.69,0.42,-0.89,2.15
173,154.20,7.45,-39.11,0.26,-1.06,2.18
174,188.52,0.32,-36.52,0.33,-0.90,2.16
175,207.34,35.47,-30.02,0.47,-0.85,2.08
176,202.29,137.45,-10.46,0.93,-0.77,1.39
177,222.56,110.56,-9.45,0.09,-0.71,1.93
178,252.47,93.22,-8.85,0.12,-0.97,1.80
179,264.70,76.31,-16.52,0.26,-0.78,1.60
180,278.73,88.52,-20.93,0.32,-0.69,1.47
181,286.46,99.08,-36.55,0.19,-0.65,1.32
182,292.17,91.44,-47.31,0.05,-0.55,1.23
183,304.18,59.60,-58.64,-0.13,-0.55,1.17
184,309.10,32.37,-62.43,-0.20,-0.48,1.08
185,308.05,18.29,-61.15,-0.20,-0.40,0.99
186,305.79,14.35,-59.05,-0.19,-0.33,0.92
187,295.62,32.00,-50.06,-0.22,-0.27,0.80
188,292.20,20.96,-43.54,-0.20,-0.13,0.72
189,288.14,3.63,-39.88,-0.22,-0.07,0.61
190,272.58,-4.81,-33.98,-0.17,0.05,0.49
191,259.88,-10.72,-23.40,-0.16,0.12,0.39
192,249.44,-17.27,-26.73,-0.15,0.16,0.33
193,233.68,-17.51,-18.14,-0.09,0.29,0.21
194,226.46,-31.33,-24.47,-0.13,0.26,0.13
195,194.60,-23.25,-14.76,-0.11,0.42,0.09
196,174.89,-20.93,-11.34,-0.03,0.47,0.00
197,150.21,-22.99,-5.57,-0.06,0.57,-0.07
198,126.63,-16.38,-5.53,-0.01,0.60,-0.15
199,99.13,-7.13,-4.89,0.02,0.66,-0.16
200,80.26,-4.38,-4.67,0.08,0.59,-0.37
201,39.15,-0.09,-6.92,0.16,0.70,-0.21
202,9.47,13.33,4.00,-0.07,0.68,-0.15
203,4.37,25.27,8.21,-0.05,0.49,-0.04
204,-26.18,15.73,13.31,-0.23,0.75,-0.19
205,-65.66,6.24,15.07,-0.20,0.76,-0.30
206,-109.37,7.05,23.97,-0.16,0.85,-0.32
207,-138.11,-2.73,19.44,-0.22,0.76,-0.27
208,-161.08,-7.31,20.14,-0.18,0.62,-0.28
209,-193.51,-11.73,24.73,-0.13,0.64,-0.23
210,-226.44,-12.38,30.08,-0.15,0.65,-0.33
211,-262.76,-25.33,36.61,-0.19,0.65,-0.17
212,-307.21,-35.57,41.31,-0.18,0.60,-0.33
213,-353.77,-42.23,47.22,-0.17,0.58,-0.24
214,-369.74,-51.89,46.46,-0.11,0.26,-0.27
215,-422.14,-59.33,45.69,-0.00,0.31,-0.43
216,-463.08,-58.66,35.48,0.17,-0.00,-0.14
217,-484.44,-60.37,27.45,0.31,-0.19,-0.13
218,-500.27,-52.52,22.02,0.50,-0.49,0.00
219,-500.27,-41.89,5.98,0.61,-0.79,0.25
220,-500.27,-22.53,-3.37,0.68,-1.05,0.54
221,-500.27,2.96,-15.66,0.57,-1.41,0.81
222,-493.02,21.76,-18.63,0.29,-1.43,1.15
223,-423.01,-13.97,-32.64,-0.22,-1.71,1.65
224,-348.78,1.01,3.83,-0.29,-1.85,2.12
225,-286.93,2.23,41.48,-0.45,-1.84,2.54
226,-187.11,-23.62,73.05,-0.31,-1.89,2.94
227,-114.41,-28.11,105.25,-0.03,-1.75,3.17
228,-61.30,-12.60,111.86,0.49,-1.25,3.01
229,12.56,-5.59,77.05,0.78,-1.46,2.95
230,22.02,12.24,34.84,0.86,-1.40,2.77
231,33.77,1.63,-9.08,0.79,-1.13,2.47
232,69.94,36.34,-43.68,0.50,-1.10,2.02
233,71.83,41.04,-48.63,0.32,-0.87,1.92
234,99.85,-12.37,-75.15,0.04,-1.05,1.78
235,123.37,-15.63,-86.34,0.00,-0.95,1.84
236,148.12,-46.32,-86.34,-0.19,-1.03,2.15
237,210.81,-125.33,-94.95,-0.15,-1.00,2.25
238,231.08,-28.00,-58.79,0.32,-0.94,2.13
239,249.13,-30.20,-59.34,0.03,-0.97,1.82
240,252.35,43.69,-36.11,0.41,-0.87,1.42
241,257.92,86.56,-15.07,0.27,-0.79,1.34
242,256.03,108.06,-3.40,0.34,-0.69,1.36
243,262.11,134.14,2.05,0.36,-0.66,1.37
244,273.13,141.97,-1.56,0.22,-0.62,1.35
245,278.75,138.89,-3.80,0.17,-0.53,1.26
246,283.39,118.99,-14.73,0.05,-0.47,1.25
247,291.86,97.95,-29.91,-0.01,-0.48,1.16
248,295.54,78.26,-36.90,-0.10,-0.44,1.04
249,292.98,43.25,-48.87,-0.31,-0.33,0.94
250,280.96,27.19,-43.91,-0.26,-0.23,0.75
251,273.25,11.33,-40.79,-0.28,-0.17,0.67
252,263.18,-5.28,-36.55,-0.25,-0.10,0.59
253,255.28,-12.00,-29.63,-0.20,-0.00,0.52
254,243.01,-18.46,-21.76,-0.16,0.09,0.38
255,226.90,-23.07,-17.18,-0.13,0.22,0.35
256,221.05,-14.43,-4.63,-0.03,0.16,0.48
257,204.84,-23.02,-6.99,-0.11,0.34,0.20
258,190.17,-21.05,-8.56,-0.03,0.37,0.16
259,169.92,-15.05,-3.66,0.02,0.45,0.07
260,148.61,-7.18,0.34,0.11,0.51,0.03
261,128.98,3.18,-9.66,0.07,0.47,0.11
262,108.69,3.97,-10.78,0.06,0.51,0.05
263,86.08,8.38,-13.63,0.05,0.54,0.03
264,65.40,13.97,-11.51,0.04,0.56,0.02
265,44.47,11.56,-13.21,-0.02,0.56,-0.03
266,22.67,12.92,-11.54,-0.09,0.57,-0.03
267,-0.84,9.36,-5.74,-0.16,0.61,-0.08
268,-18.85,0.38,-3.76,-0.27,0.57,-0.07
269,-61.51,-65.77,-41.59,-0.37,0.54,-0.17
270,-74.49,-19.24,7.33,-0.24,0.54,-0.01
271,-95.88,-31.73,10.14,-0.22,0.56,-0.05
272,-122.76,-51.16,11.18,-0.25,0.55,0.04
273,-152.78,-57.77,14.66,-0.17,0.59,0.00
274,-178.66,-60.27,21.19,-0.13,0.59,-0.06
275,-205.28,-60.84,28.95,-0.10,0.55,-0.15
276,-248.52,-72.76,35.56,-0.14,0.60,-0.17
277,-281.44,-83.11,32.93,-0.12,0.50,-0.22
278,-325.53,-102.64,36.55,-0.04,0.45,-0.20
279,-359.62,-119.71,43.02,-0.02,0.29,-0.23
280,-402.31,-109.54,42.78,0.24,0.10,-0.37
281,-441.40,-96.98,49.92,0.33,-0.12,-0.29
282,-470.06,-70.55,55.24,0.50,-0.46,-0.20
283,-486.35,-49.54,53.22,0.50,-0.84,0.16
284,-497.50,-36.67,33.31,0.52,-1.11,0.62
285,-478.89,-7.16,47.34,0.53,-1.26,0.94
286,-443.54,9.51,36.78,0.32,-1.61,1.48
287,-417.86,-22.23,38.76,0.11,-1.65,2.08
288,-347.86,-28.64,45.31,0.06,-1.76,2.56
289,-267.02,-24.27,56.20,0.12,-1.77,3.13
290,-165.88,8.82,57.54,0.61,-1.91,3.18
291,-141.44,42.24,68.12,0.51,-1.31,3.30
292,-232.11,182.81,95.22,0.99,0.38,1.92
293,-43.22,93.47,5.95,-0.16,-1.66,2.81
294,42.93,28.44,-8.55,0.41,-1.60,2.63
295,70.64,49.65,-53.47,0.63,-1.21,1.94
296,50.35,104.37,-43.13,0.57,-0.77,1.63
297,118.38,-8.12,-90.63,-0.03,-1.08,1.77
298,102.89,9.76,-88.72,0.03,-0.85,1.71
299,113.65,-11.27,-64.05,-0.42,-0.96,1.85
300,134.02,-31.30,-48.40,-0.05,-0.89,1.90
301,159.88,-43.45,-39.91,0.12,-0.90,1.79
302,198.95,-24.03,-64.53,0.39,-0.86,1.72
303,233.50,32.70,-53.48,0.44,-0.82,1.59
304,276.34,63.51,-54.58,0.31,-0.97,1.69
305,266.90,94.23,-41.63,0.37,-0.74,1.29
306,259.05,125.16,-25.45,0.30,-0.49,1.12
307,266.78,140.11,-25.79,0.28,-0.50,1.02
308,258.93,140.98,-18.58,0.20,-0.43,1.12
309,266.49,118.99,-34.41,0.02,-0.49,1.08
310,277.07,91.37,-45.50,-0.05,-0.50,1.07
311,270.82,68.14,-51.85,-0.11,-0.44,0.96
312,262.66,53.25,-54.60,-0.18,-0.33,0.86
313,254.00,40.69,-52.72,-0.23,-0.28,0.73
314,247.59,24.49,-50.11,-0.30,-0.19,0.74
315,244.55,10.72,-46.96,-0.32,-0.17,0.76
316,241.77,-12.02,-43.07,-0.34,-0.13,0.76
317,236.38,-30.69,-36.41,-0.33,-0.05,0.63
318,228.03,-41.30,-29.25,-0.30,0.04,0.51
319,218.18,-48.89,-20.17,-0.28,0.14,0.43
320,208.93,-56.73,-13.59,-0.26,0.20,0.38
321,188.73,-55.80,-4.99,-0.16,0.29,0.26
322,168.05,-54.79,2.00,-0.12,0.35,0.21
323,153.08,-55.18,3.21,-0.04,0.39,0.16
324,131.83,-53.92,2.17,-0.08,0.47,0.18
325,108.64,-43.77,5.24,-0.01,0.52,0.12
326,84.73,-38.87,8.18,-0.02,0.53,0.02
327,60.67,-37.57,11.50,-0.03,0.56,0.02
328,35.59,-30.76,15.15,-0.02,0.59,-0.02
329,9.10,-24.61,19.42,-0.02,0.59,-0.02
330,-17.22,-26.02,22.55,-0.08,0.63,-0.09
331,-46.49,-33.60,24.93,-0.11,0.66,-0.12
332,-76.37,-36.92,30.35,-0.11,0.64,-0.08
333,-102.67,-41.74,29.60,-0.08,0.62,-0.04
334,-134.52,-47.76,31.33,-0.06,0.59,-0.01
335,-167.68,-56.55,27.88,-0.08,0.59,-0.04
336,-200.99,-67.02,28.67,-0.08,0.56,-0.10
337,-228.55,-72.70,31.36,-0.05,0.54,-0.20
338,-260.56,-75.69,36.63,-0.01,0.45,-0.22
339,-297.91,-88.79,40.24,-0.02,0.39,-0.21
340,-337.25,-110.14,40.70,-0.03,0.25,-0.14
341,-381.76,-88.43,41.85,0.17,0.12,-0.31
342,-417.60,-72.00,45.28,0.30,-0.14,-0.28
343,-450.72,-45.13,46.69,0.44,-0.41,-0.19
344,-467.04,-22.85,43.88,0.48,-0.76,0.12
345,-480.09,-21.30,25.88,0.26,-1.08,0.61
346,-463.01,11.15,36.03,0.40,-1.22,0.68
347,-435.82,-18.27,22.89,0.07,-1.49,1.40
348,-408.75,-76.24,25.22,-0.09,-1.55,1.94
349,-341.57,-58.21,40.98,0.33,-1.84,1.86
350,-304.79,34.93,71.15,0.21,-1.76,2.88
351,-191.42,-182.00,30.75,0.01,-1.70,3.08
352,-160.99,-161.51,-0.55,0.85,-1.56,2.80
353,-248.21,427.01,197.33,4.00,1.17,-0.96
354,-238.93,144.38,35.83,0.32,-0.69,2.85
355,-61.74,107.89,-24.17,0.60,-1.82,2.12
356,27.77,-49.62,-55.40,-0.39,-1.52,3.20
357,83.30,-69.88,-71.79,0.27,-1.48,2.76
358,103.16,-3.31,-50.50,0.42,-1.13,2.03
359,108.63,-16.26,-42.61,0.19,-1.07,1.95
360,135.08,-4.93,-47.27,0.27,-1.04,1.67
361,144.60,17.19,-37.80,0.39,-0.99,1.62
362,145.02,15.50,-43.63,0.03,-0.85,1.92
363,175.97,90.12,-27.79,0.15,-0.81,1.91
364,217.88,106.21,-15.37,0.36,-0.90,1.70
365,253.39,145.62,-6.64,0.46,-0.92,1.52
366,270.35,163.33,-5.39,0.40,-0.75,1.43
367,279.37,194.66,-3.45,0.43,-0.68,1.25
368,275.86,204.26,-3.48,0.32,-0.55,1.07
369,260.43,188.73,-12.89,0.15,-0.49,1.00
370,255.50,164.32,-17.05,0.05,-0.39,0.99
371,248.76,136.56,-31.54,-0.03,-0.48,1.02
372,247.47,116.00,-39.57,-0.14,-0.48,1.02
373,252.55,89.31,-41.47,-0.23,-0.47,1.15
374,260.17,70.18,-41.91,-0.24,-0.46,1.22
375,263.65,48.98,-41.02,-0.25,-0.43,1.25
376,257.86,46.89,-33.82,-0.21,-0.35,1.19
377,247.82,32.49,-30.14,-0.19,-0.26,1.05
378,240.53,27.80,-25.37,-0.09,-0.18,0.92
379,233.37,27.24,-22.92,-0.02,-0.12,0.89
380,226.02,35.73,-21.33,0.06,-0.06,0.89
381,234.66,45.16,-24.67,0.11,-0.06,0.91
382,229.39,52.73,-28.63,0.10,0.01,0.88
383,224.24,56.02,-33.66,0.11,0.05,0.82
384,219.44,62.82,-37.19,0.08,0.04,0.76
385,205.65,60.61,-39.98,-0.03,0.15,0.65
386,187.25,63.54,-38.46,-0.05,0.22,0.45
387,157.15,58.82,-36.56,-0.11,0.30,0.38
388,134.87,53.94,-34.06,-0.14,0.32,0.30
389,120.93,59.63,-31.40,-0.13,0.34,0.31
390,105.83,60.09,-29.44,-0.16,0.34,0.34
391,93.86,65.33,-24.87,-0.18,0.35,0.23
392,69.05,58.78,-20.40,-0.25,0.44,0.17
393,54.06,52.93,-16.00,-0.28,0.44,0.08
394,33.57,44.56,-12.18,-0.31,0.48,0.01
395,11.07,42.00,-7.59,-0.36,0.50,-0.05
396,-8.66,37.56,0.12,-0.45,0.61,-0.08
397,-33.54,25.63,6.49,-0.53,0.61,-0.19
398,-62.93,4.50,14.43,-0.56,0.67,-0.15
399,-107.24,-13.28,18.82,-0.63,0.69,-0.15
400,-117.31,-36.38,33.45,-0.58,0.72,-0.00
