,gyro_x,gyro_y,gyro_z,acce_x,acce_y,acce_z
0,125.94,24.96,2.66,-0.08,0.64,-0.17
1,102.87,18.14,0.47,-0.07,0.74,-0.32
2,74.29,7.57,-2.72,-0.11,0.81,-0.37
3,45.16,-5.92,-4.69,-0.16,0.90,-0.44
4,17.07,-14.02,-4.95,-0.13,0.93,-0.49
5,-15.19,-8.41,-1.63,-0.05,0.97,-0.50
6,-49.73,2.56,3.11,0.02,0.97,-0.49
7,-82.76,11.79,6.41,0.04,0.95,-0.52
8,-118.95,20.58,10.17,0.06,0.94,-0.52
9,-151.80,27.02,9.92,0.03,0.87,-0.50
10,-184.29,32.03,10.35,0.01,0.82,-0.43
11,-217.13,36.29,13.22,0.01,0.73,-0.38
12,-253.07,55.08,14.73,0.09,0.63,-0.35
13,-286.63,58.66,11.69,0.01,0.52,-0.24
14,-315.05,53.25,8.05,-0.05,0.41,-0.14
15,-339.10,46.46,6.98,-0.07,0.28,-0.09
16,-363.37,37.36,5.07,-0.09,0.16,-0.06
17,-385.94,25.01,0.70,-0.13,0.01,0.02
18,-405.66,3.21,-4.21,-0.14,-0.19,0.12
19,-420.89,-9.40,-6.67,-0.07,-0.43,0.34
20,-426.27,-9.59,-6.90,0.01,-0.69,0.51
21,-423.01,1.34,-0.37,0.07,-0.92,0.72
22,-402.78,2.09,3.02,0.10,-1.26,1.11
23,-373.40,3.77,8.24,0.14,-1.47,1.48
24,-339.33,5.53,14.46,0.16,-1.61,1.87
25,-301.57,8.60,19.37,0.21,-1.65,2.21
26,-258.06,20.55,23.74,0.20,-1.76,2.37
27,-213.63,28.06,25.39,0.06,-1.76,2.54
28,-158.56,14.35,19.83,-0.02,-1.79,2.56
29,-129.88,38.20,25.91,0.07,-1.71,2.71
30,-90.29,38.08,29.51,-0.15,-1.68,2.63
31,-57.34,-1.07,7.24,-0.25,-1.43,2.50
32,-17.59,-22.60,-5.51,-0.25,-1.54,2.53
33,37.19,-105.53,-36.38,-0.18,-1.52,2.69
34,60.37,-98.64,-42.84,0.35,-1.47,2.45
35,39.13,20.12,-23.62,0.68,-1.25,2.25
36,107.19,-28.73,-46.93,-0.25,-1.49,2.35
37,101.16,-25.42,-35.27,-0.14,-1.30,2.51
38,123.85,0.12,-27.60,0.11,-1.27,2.28
39,150.26,28.52,-12.64,0.09,-1.26,2.21
40,187.47,42.32,1.47,0.07,-1.26,2.17
41,214.90,71.11,13.94,0.05,-1.17,1.99
42,238.92,99.74,24.64,0.11,-1.10,1.79
43,245.11,94.20,21.24,0.08,-0.96,1.63
44,242.58,101.44,17.16,0.12,-0.89,1.43
45,260.32,105.15,11.59,-0.07,-0.91,1.35
46,271.44,99.25,12.14,-0.16,-0.84,1.36
47,291.25,72.75,5.01,-0.31,-0.83,1.25
48,302.50,53.74,2.58,-0.28,-0.71,1.10
49,307.19,41.98,0.85,-0.21,-0.62,0.96
50,314.53,48.89,0.23,-0.11,-0.55,0.87
51,318.18,49.31,1.48,-0.11,-0.46,0.77
52,318.32,42.00,2.26,-0.16,-0.37,0.60
53,310.82,31.37,2.76,-0.20,-0.22,0.44
54,285.56,28.50,9.92,-0.21,-0.08,0.30
55,275.08,19.98,9.30,-0.20,0.05,0.11
56,248.20,15.86,11.66,-0.23,0.22,0.03
57,238.69,21.76,20.38,-0.23,0.28,-0.05
58,216.11,11.42,23.11,-0.24,0.33,-0.05
59,198.90,-6.05,19.66,-0.30,0.48,-0.22
60,179.76,-10.58,19.62,-0.18,0.55,-0.18
61,152.12,-9.25,21.76,-0.23,0.61,-0.29
62,128.63,-9.85,26.89,-0.11,0.58,-0.13
63,100.14,-11.24,24.72,-0.19,0.76,-0.50
64,77.34,-1.57,35.10,-0.03,0.63,-0.18
65,43.02,-8.14,26.92,-0.14,0.79,-0.47
66,1.97,2.29,40.84,-0.01,0.92,-0.46
67,-27.54,10.40,33.28,-0.12,0.75,-0.46
68,-61.59,17.37,34.85,-0.04,0.90,-0.55
69,-89.97,20.18,36.64,-0.03,0.98,-0.49
70,-124.32,22.78,33.82,-0.07,0.84,-0.45
71,-155.15,19.97,27.54,-0.13,0.79,-0.45
72,-185.54,8.14,18.99,-0.11,0.72,-0.45
73,-219.95,9.69,18.24,-0.07,0.73,-0.44
74,-251.77,3.08,13.07,-0.07,0.66,-0.40
75,-284.17,-3.39,8.43,-0.08,0.58,-0.38
76,-316.43,-13.92,3.33,-0.05,0.46,-0.32
77,-345.54,-24.92,-6.11,0.00,0.32,-0.23
78,-367.01,-39.25,-17.22,0.03,0.08,-0.07
79,-378.18,-40.44,-23.30,0.17,-0.15,0.04
80,-384.38,-34.03,-27.30,0.23,-0.39,0.38
81,-383.04,-27.76,-31.79,0.18,-0.61,0.63
82,-377.76,-21.69,-27.24,-0.01,-0.87,0.87
83,-366.69,5.83,-17.83,0.04,-0.90,0.97
84,-342.75,12.93,-9.27,0.02,-1.08,1.25
85,-319.77,-0.75,-4.35,-0.19,-1.19,1.47
86,-280.31,-32.84,-11.47,-0.17,-1.35,1.77
87,-273.94,-18.82,4.92,-0.03,-1.26,1.93
88,-226.85,-15.53,0.87,0.01,-1.42,2.08
89,-190.44,-13.91,0.84,-0.02,-1.47,2.45
90,-132.85,-53.13,-14.11,-0.08,-1.84,2.80
91,-94.53,-79.71,-24.26,0.01,-1.50,2.57
92,-49.60,-86.15,-33.51,0.06,-1.40,2.48
93,-30.92,-51.95,-23.98,0.23,-1.50,2.72
94,0.69,-40.47,-36.12,-0.06,-1.60,2.74
95,21.60,-35.48,-36.24,-0.10,-1.33,2.65
96,79.54,-42.15,-32.63,-0.05,-1.32,2.45
97,103.24,-22.66,-28.05,0.07,-1.30,2.46
98,117.48,16.46,-8.15,0.12,-1.15,2.36
99,139.54,37.59,-3.24,0.10,-1.15,2.32
100,156.02,52.12,2.79,0.07,-1.11,2.23
101,190.78,53.47,2.03,0.05,-1.11,2.08
102,204.81,90.03,13.31,0.21,-0.97,1.94
103,218.49,94.64,10.05,0.09,-0.94,1.87
104,214.78,107.83,7.07,0.12,-0.82,1.71
105,221.53,93.48,-2.76,-0.00,-0.83,1.57
106,231.01,91.50,4.44,-0.05,-0.69,1.44
107,243.24,71.44,-0.40,-0.23,-0.67,1.39
108,261.82,54.11,-2.43,-0.21,-0.72,1.36
109,280.35,60.11,-0.49,-0.12,-0.69,1.29
110,294.96,68.47,1.57,-0.11,-0.64,1.22
111,297.68,59.92,-0.44,-0.16,-0.55,1.08
112,294.99,45.50,-2.17,-0.19,-0.45,0.89
113,290.64,39.24,-0.50,-0.19,-0.31,0.72
114,284.40,35.10,1.76,-0.23,-0.21,0.59
115,273.97,22.35,0.90,-0.27,-0.10,0.46
116,264.31,9.01,-1.74,-0.27,0.01,0.32
117,244.87,3.31,-0.84,-0.23,0.12,0.26
118,234.89,-7.37,-3.47,-0.26,0.12,0.16
119,219.36,-11.92,-1.50,-0.25,0.24,0.11
120,201.57,-20.12,0.15,-0.26,0.33,0.00
121,184.76,-25.40,3.25,-0.25,0.40,-0.06
122,166.98,-21.89,7.42,-0.18,0.41,-0.17
123,146.63,-17.79,10.46,-0.18,0.52,-0.21
124,120.40,-4.53,16.99,-0.09,0.56,-0.22
125,94.95,-4.21,15.60,-0.09,0.64,-0.34
126,67.57,1.89,16.11,-0.08,0.66,-0.40
127,38.61,9.15,18.27,-0.10,0.73,-0.46
128,5.04,22.06,21.13,-0.04,0.68,-0.37
129,-31.28,25.21,22.11,-0.18,0.82,-0.57
130,-59.31,26.09,21.86,-0.20,0.88,-0.62
131,-106.40,19.66,23.63,-0.29,0.94,-0.74
132,-146.29,17.92,28.40,-0.25,0.88,-0.57
133,-173.53,10.64,18.70,-0.34,0.83,-0.70
134,-208.35,11.30,22.89,-0.25,0.72,-0.58
135,-244.12,10.82,23.59,-0.21,0.59,-0.46
136,-275.51,-11.05,8.60,-0.35,0.47,-0.33
137,-304.31,-22.12,2.03,-0.22,0.34,-0.19
138,-325.02,-43.89,-10.26,-0.16,0.23,-0.14
139,-345.01,-45.51,-19.04,-0.02,0.13,-0.09
140,-359.36,-36.67,-30.20,0.04,-0.05,0.01
141,-370.37,-41.31,-38.35,0.04,-0.27,0.26
142,-375.97,-53.69,-39.45,0.00,-0.46,0.45
143,-376.26,-73.15,-39.01,0.00,-0.61,0.65
144,-376.00,-81.37,-35.01,0.02,-0.75,0.83
145,-369.21,-76.40,-30.09,0.03,-0.89,0.97
146,-344.24,-90.05,-23.79,-0.03,-1.13,1.31
147,-307.95,-100.12,-15.98,0.02,-1.28,1.63
148,-277.53,-92.73,-10.03,0.14,-1.37,1.93
149,-214.15,-93.45,-18.89,0.17,-1.56,2.21
150,-197.24,-43.50,-4.37,0.37,-1.53,2.51
151,-141.40,-33.42,-10.60,0.21,-1.62,2.66
152,-92.81,-43.56,-16.78,0.07,-1.58,2.72
153,-75.98,-49.42,-27.36,-0.16,-1.53,2.51
154,17.97,-77.31,-37.08,-0.27,-1.64,2.54
155,5.53,-95.04,-45.54,0.05,-1.38,2.62
156,48.14,-94.92,-49.91,0.20,-1.37,2.45
157,52.79,-28.63,-17.95,0.32,-1.24,2.15
158,94.26,-47.60,-30.24,-0.18,-1.23,2.35
159,122.31,-62.64,-32.38,-0.02,-1.17,2.43
160,142.40,-24.02,-21.56,0.32,-1.00,2.09
161,129.42,24.90,-10.23,0.30,-0.86,2.01
162,149.31,47.21,-0.75,0.21,-0.90,1.92
163,187.16,40.78,-3.37,0.13,-0.94,1.93
164,188.49,46.53,-0.41,0.19,-0.80,1.92
165,201.36,66.63,-2.09,0.34,-0.85,1.82
166,220.09,81.60,-9.73,0.42,-0.79,1.59
167,231.27,91.27,-14.87,0.26,-0.67,1.49
168,246.49,82.93,-19.94,0.03,-0.63,1.32
169,249.40,73.69,-18.64,-0.12,-0.53,1.20
170,243.86,64.03,-13.97,-0.15,-0.44,1.06
171,243.77,49.45,-13.85,-0.17,-0.39,0.98
172,246.96,30.00,-18.44,-0.19,-0.34,0.90
173,242.76,20.18,-19.37,-0.14,-0.23,0.77
174,235.62,18.06,-16.53,-0.14,-0.14,0.63
175,226.40,3.68,-16.70,-0.21,-0.06,0.50
176,214.72,-9.16,-16.73,-0.19,0.03,0.41
177,196.69,-13.71,-17.15,-0.12,0.11,0.32
178,184.37,-16.81,-14.18,-0.08,0.20,0.22
179,170.81,-14.58,-15.07,-0.06,0.22,0.14
180,153.91,-14.12,-14.44,-0.07,0.29,0.08
181,134.47,-9.02,-11.47,-0.05,0.36,0.01
182,123.63,8.52,-6.37,-0.03,0.37,-0.04
183,104.72,17.95,-4.09,-0.03,0.41,-0.07
184,82.11,17.36,-4.03,-0.09,0.46,-0.14
185,60.82,15.44,-5.68,-0.14,0.50,-0.24
186,36.89,17.54,-5.62,-0.15,0.54,-0.32
187,10.32,18.47,-4.32,-0.23,0.57,-0.35
188,-17.16,11.69,-2.87,-0.32,0.59,-0.38
189,-49.19,1.42,0.82,-0.41,0.63,-0.42
190,-82.20,-10.29,4.70,-0.48,0.64,-0.44
191,-112.20,-20.82,10.58,-0.50,0.63,-0.47
192,-139.62,-31.21,14.60,-0.45,0.54,-0.42
193,-163.39,-42.70,17.86,-0.39,0.49,-0.31
194,-193.68,-52.84,20.96,-0.36,0.46,-0.31
195,-220.60,-59.24,24.81,-0.31,0.41,-0.30
196,-250.44,-69.48,27.42,-0.27,0.36,-0.25
197,-280.38,-81.11,29.82,-0.22,0.30,-0.21
198,-308.32,-93.13,30.02,-0.17,0.19,-0.16
199,-334.50,-107.62,27.28,-0.07,0.10,-0.13
200,-360.93,-117.95,26.61,0.04,-0.05,-0.04
201,-377.39,-118.55,23.71,0.15,-0.26,0.07
202,-392.31,-120.93,26.02,0.32,-0.45,0.27
203,-381.82,-144.24,8.72,0.28,-0.74,0.49
204,-379.95,-125.28,15.47,0.49,-0.93,0.74
205,-386.67,-82.17,33.53,0.57,-1.13,1.04
206,-371.50,-41.62,47.79,0.65,-1.41,1.48
207,-328.87,-18.79,51.60,0.61,-1.67,1.95
208,-285.88,13.56,64.24,0.66,-1.71,2.14
209,-239.04,39.82,63.98,0.61,-1.74,2.48
210,-179.56,52.63,58.49,0.52,-1.72,2.67
211,-118.15,50.81,46.98,0.41,-1.84,2.70
212,-83.92,64.02,40.09,0.32,-1.72,2.97
213,-8.75,59.66,18.44,-0.03,-1.86,2.79
214,-40.98,-43.89,-12.92,-0.20,-1.66,2.98
215,35.95,-153.97,-74.32,-0.02,-1.73,3.12
216,122.99,-51.05,-47.42,0.59,-1.56,2.15
217,121.02,-27.54,-47.91,0.17,-1.27,2.31
218,139.44,-29.85,-42.29,-0.05,-1.23,2.15
219,165.13,-67.42,-38.85,-0.14,-1.27,2.12
220,181.18,-108.70,-52.31,0.21,-1.09,2.02
221,204.03,-68.90,-47.85,0.63,-0.93,1.67
222,198.08,4.90,-29.37,0.77,-0.70,1.53
223,198.32,55.98,-19.79,0.65,-0.73,1.47
224,198.95,90.41,-11.62,0.59,-0.70,1.49
225,209.74,111.74,-10.64,0.54,-0.69,1.46
226,217.73,122.72,-10.87,0.45,-0.64,1.44
227,230.44,124.14,-14.11,0.38,-0.62,1.34
228,239.83,134.58,-16.98,0.33,-0.57,1.20
229,239.91,135.77,-22.20,0.19,-0.50,1.11
230,235.94,129.40,-26.44,0.13,-0.46,1.05
231,237.83,123.76,-30.08,0.07,-0.42,0.93
232,239.51,108.02,-34.32,-0.05,-0.34,0.81
233,241.85,87.08,-39.39,-0.13,-0.28,0.68
234,239.71,63.39,-42.99,-0.17,-0.23,0.64
235,234.17,42.31,-44.99,-0.18,-0.16,0.57
236,229.34,25.07,-46.96,-0.21,-0.11,0.45
237,218.27,11.33,-46.84,-0.26,0.03,0.28
238,202.17,1.31,-44.23,-0.28,0.15,0.14
239,187.48,-8.37,-42.52,-0.30,0.23,0.07
240,163.10,-6.14,-32.98,-0.33,0.38,-0.07
241,143.21,-17.08,-28.99,-0.31,0.38,-0.07
242,118.27,-21.65,-25.01,-0.20,0.39,-0.05
243,87.37,-11.30,-16.76,-0.16,0.49,-0.23
244,56.72,-1.18,-11.92,-0.11,0.55,-0.25
245,31.50,10.12,-8.50,-0.10,0.52,-0.25
246,3.51,18.27,-6.40,-0.12,0.55,-0.26
247,-25.28,18.89,-5.27,-0.20,0.57,-0.28
248,-58.18,14.08,-1.95,-0.28,0.61,-0.33
249,-88.82,4.90,0.15,-0.32,0.59,-0.28
250,-118.99,-1.04,3.57,-0.34,0.59,-0.29
251,-153.22,-6.23,9.24,-0.33,0.55,-0.25
252,-189.68,-7.24,14.35,-0.28,0.53,-0.26
253,-222.85,-9.53,20.15,-0.25,0.46,-0.25
254,-262.11,-10.08,27.34,-0.24,0.48,-0.29
255,-293.28,-13.57,31.37,-0.22,0.36,-0.25
256,-327.16,-29.89,32.47,-0.26,0.23,-0.24
257,-354.73,-44.58,35.31,-0.20,0.04,-0.14
258,-379.36,-52.58,38.44,-0.14,-0.18,0.01
259,-378.81,-73.42,25.65,-0.11,-0.53,0.23
260,-381.34,-77.76,23.05,0.08,-0.72,0.40
261,-370.55,-92.11,19.40,0.11,-1.02,0.76
262,-351.47,-91.53,23.53,0.37,-1.19,1.03
263,-323.24,-65.15,25.98,0.49,-1.41,1.45
264,-282.40,-45.66,26.38,0.49,-1.60,1.91
265,-237.25,-22.35,24.72,0.56,-1.61,2.15
266,-194.35,-4.41,18.20,0.48,-1.63,2.35
267,-185.62,47.25,23.21,0.34,-1.40,2.11
268,-136.40,81.07,22.24,-0.16,-1.37,2.47
269,-111.56,-8.24,-26.23,-0.30,-1.72,3.00
270,-38.70,-90.70,-38.38,0.15,-1.53,2.10
271,10.08,-9.71,-13.97,0.47,-1.43,2.14
272,24.23,11.63,-7.21,0.08,-1.36,2.36
273,59.71,-31.31,-25.56,-0.17,-1.42,2.32
274,100.24,-54.56,-31.33,-0.04,-1.36,2.22
275,122.90,-64.53,-33.76,0.14,-1.17,1.99
276,134.70,-45.50,-32.85,0.30,-1.03,1.88
277,159.77,-30.03,-28.06,0.32,-0.96,1.71
278,175.91,-11.54,-26.96,0.37,-0.88,1.69
279,181.18,20.52,-17.40,0.44,-0.80,1.53
280,196.89,48.23,-11.51,0.48,-0.76,1.47
281,204.26,78.29,-7.27,0.48,-0.67,1.42
282,204.41,108.29,-3.02,0.49,-0.65,1.37
283,210.99,136.47,-4.11,0.43,-0.65,1.29
284,212.17,141.39,-8.31,0.34,-0.59,1.16
285,209.89,148.69,-11.08,0.26,-0.51,1.03
286,211.34,145.31,-19.71,0.13,-0.48,0.96
287,215.48,128.00,-28.66,0.00,-0.47,0.91
288,219.62,103.54,-38.06,-0.06,-0.42,0.80
289,217.65,83.62,-41.95,-0.13,-0.32,0.68
290,208.56,63.62,-44.79,-0.23,-0.21,0.51
291,194.95,34.47,-47.22,-0.31,-0.09,0.39
292,182.09,17.02,-46.09,-0.32,0.01,0.28
293,162.66,-0.15,-44.56,-0.34,0.13,0.17
294,143.47,-15.62,-44.09,-0.34,0.20,0.09
295,122.72,-20.93,-38.09,-0.26,0.28,-0.01
296,96.05,-23.34,-30.84,-0.26,0.34,-0.07
297,71.22,-24.72,-25.53,-0.24,0.39,-0.09
298,45.28,-24.72,-19.05,-0.24,0.42,-0.11
299,16.98,-29.53,-17.47,-0.24,0.45,-0.12
300,-18.73,-30.56,-13.76,-0.23,0.54,-0.22
301,-46.98,-25.83,-6.43,-0.23,0.53,-0.31
302,-74.81,-29.45,-1.65,-0.24,0.51,-0.26
303,-110.05,-39.98,-1.85,-0.26,0.48,-0.17
304,-142.29,-44.85,2.96,-0.26,0.43,-0.15
305,-176.27,-48.31,8.03,-0.26,0.42,-0.19
306,-209.60,-52.99,15.91,-0.23,0.37,-0.17
307,-234.93,-61.98,14.92,-0.24,0.22,-0.38
308,-275.30,-71.05,25.79,-0.14,0.21,-0.21
309,-311.36,-75.57,24.66,-0.05,0.05,-0.07
310,-338.23,-73.22,19.71,0.17,-0.24,0.04
311,-350.70,-66.43,9.86,0.29,-0.45,0.10
312,-359.74,-61.88,2.70,0.35,-0.60,0.33
313,-356.23,-57.42,-6.55,0.35,-0.87,0.60
314,-341.82,-45.94,-5.91,0.35,-1.08,0.94
315,-349.11,-20.93,-6.31,0.33,-1.11,1.23
316,-311.82,14.64,-14.56,-0.35,-1.38,1.55
317,-339.21,-16.84,10.00,0.14,-1.39,2.34
318,-249.02,-54.78,4.85,0.32,-1.76,2.11
319,-151.82,-43.94,-4.81,0.30,-1.77,2.21
320,-115.92,-14.72,7.01,0.38,-1.54,2.33
321,-74.72,-6.67,-0.44,0.25,-1.64,2.36
322,-50.98,-9.19,-2.18,0.21,-1.51,2.27
323,-17.74,-28.52,-17.86,0.18,-1.45,2.11
324,14.02,-30.56,-25.28,0.24,-1.37,1.97
325,43.62,-33.31,-34.12,0.22,-1.29,1.88
326,59.76,-30.50,-35.02,0.18,-1.20,1.79
327,78.06,-29.94,-35.25,0.18,-1.16,1.75
328,97.71,-16.21,-29.11,0.30,-1.11,1.70
329,113.88,8.96,-18.99,0.38,-1.07,1.67
330,132.37,46.03,-6.81,0.46,-1.04,1.65
331,144.78,87.05,6.34,0.51,-0.99,1.64
332,168.20,123.15,18.47,0.48,-1.00,1.52
333,188.27,139.15,22.44,0.41,-0.98,1.58
334,207.13,151.16,19.28,0.33,-0.97,1.56
335,227.01,159.56,13.24,0.24,-0.95,1.45
336,251.89,166.73,11.80,0.16,-0.91,1.37
337,266.44,147.21,-3.82,-0.05,-0.88,1.32
338,253.89,108.38,-15.44,-0.14,-0.75,1.29
339,273.02,77.82,-25.36,-0.15,-0.78,1.17
340,275.50,41.76,-37.27,-0.13,-0.72,1.07
341,286.60,5.94,-55.07,-0.15,-0.72,1.04
342,300.56,1.76,-55.07,-0.02,-0.64,0.87
343,302.31,3.25,-58.37,-0.05,-0.54,0.84
344,301.28,13.25,-52.06,-0.04,-0.41,0.68
345,294.44,17.51,-47.40,-0.03,-0.32,0.58
346,285.89,13.18,-48.20,-0.04,-0.25,0.41
347,268.75,9.07,-43.19,-0.06,-0.03,0.32
348,218.17,10.99,-34.50,-0.08,0.17,0.19
349,207.82,18.26,-27.37,-0.10,0.32,0.10
350,185.47,14.81,-26.43,-0.16,0.38,0.01
351,158.47,1.86,-29.19,-0.19,0.45,-0.08
352,130.06,-9.54,-31.04,-0.18,0.52,-0.13
353,94.08,-19.69,-35.10,-0.20,0.57,-0.14
354,53.79,-21.19,-33.10,-0.24,0.62,-0.22
355,35.48,-17.13,-32.31,-0.14,0.62,-0.29
356,-8.49,-17.42,-28.24,-0.19,0.61,-0.21
357,-47.50,-27.21,-30.03,-0.28,0.65,-0.24
358,-94.23,-33.48,-22.46,-0.30,0.75,-0.31
359,-126.34,-37.15,-15.18,-0.34,0.64,-0.18
360,-162.85,-43.66,-5.98,-0.34,0.54,-0.16
361,-195.54,-43.95,2.35,-0.27,0.50,-0.18
362,-236.17,-38.60,14.24,-0.21,0.48,-0.24
363,-274.37,-32.34,24.05,-0.17,0.40,-0.36
364,-306.24,-29.56,27.60,-0.07,0.22,-0.29
365,-337.02,-33.48,32.35,0.03,-0.02,-0.12
366,-365.04,-25.48,29.04,0.26,-0.27,-0.04
367,-387.08,-2.78,15.69,0.35,-0.44,0.03
368,-381.88,19.07,10.63,0.40,-0.91,0.17
369,-373.69,3.74,2.60,0.26,-1.19,0.77
370,-315.51,-22.38,-10.76,0.22,-1.53,1.17
371,-277.92,-13.92,2.34,0.27,-1.57,1.90
372,-202.49,-18.38,-9.39,0.21,-1.74,2.38
373,-193.91,10.90,1.10,0.27,-1.63,2.72
374,-135.28,-6.02,-23.77,-0.04,-1.68,3.21
375,-100.50,-110.24,-50.93,-0.14,-1.84,3.24
376,21.13,10.21,11.10,0.63,-1.52,1.93
377,59.71,49.02,13.13,0.32,-1.41,2.36
378,79.51,13.85,-2.60,0.06,-1.27,2.07
379,116.03,-13.10,-6.44,0.02,-1.21,1.69
380,109.89,-1.65,-0.47,0.09,-0.82,1.42
381,116.81,-22.93,-13.74,-0.07,-0.73,1.15
382,113.77,-26.79,-10.82,0.05,-0.51,0.86
383,110.47,-18.67,-13.05,0.11,-0.41,0.72
384,95.31,1.57,-7.76,0.10,-0.28,0.68
385,82.58,21.34,0.70,0.08,-0.23,0.56
386,66.50,40.90,12.44,0.06,-0.18,0.53
387,49.21,52.78,21.10,0.01,-0.18,0.56
388,35.25,55.39,29.86,-0.03,-0.22,0.64
389,23.27,55.62,37.39,-0.01,-0.28,0.75
390,17.13,48.58,35.59,-0.01,-0.35,0.90
391,13.25,42.34,34.21,0.03,-0.40,0.98
392,26.61,29.51,26.98,-0.01,-0.49,1.04
393,36.14,13.33,17.83,-0.04,-0.51,1.11
394,44.55,-2.00,11.69,-0.03,-0.53,1.13
395,48.02,-10.27,9.39,0.00,-0.51,1.18
396,52.43,-19.97,6.12,0.02,-0.50,1.17
397,53.30,-24.49,4.61,0.04,-0.48,1.14
398,51.15,-23.10,5.50,0.08,-0.44,1.11
399,48.08,-20.24,7.16,0.08,-0.43,1.11
400,45.21,-14.15,11.07,0.09,-0.41,1.11
