,gyro_x,gyro_y,gyro_z,acce_x,acce_y,acce_z
0,4.75,11.89,-0.14,0.20,1.04,"29.75[0m
"
1,-1.15,5.16,11.91,-0.14,0.20,1.02
2,-2.12,5.79,11.65,-0.13,0.20,1.02
3,-3.13,6.31,11.10,-0.14,0.21,1.01
4,-4.00,4.73,10.90,-0.14,0.21,1.00
5,-5.50,3.86,10.35,-0.14,0.21,1.00
6,-7.34,3.86,9.73,-0.14,0.21,0.99
7,-8.76,2.03,9.07,-0.15,0.21,0.99
8,-10.63,0.66,8.87,-0.16,0.20,0.99
9,-12.15,-0.63,8.52,-0.17,0.20,1.00
10,-13.59,-2.09,8.26,-0.17,0.20,1.00
11,-14.98,-3.51,8.47,-0.17,0.19,1.01
12,-16.53,-5.15,8.43,-0.17,0.19,1.03
13,-18.24,-6.81,9.10,-0.18,0.19,1.03
14,-20.32,-7.05,9.24,-0.17,0.18,1.04
15,-22.32,-8.17,9.69,-0.17,0.18,1.06
16,-24.44,-8.60,9.89,-0.17,0.18,1.07
17,-26.24,-11.39,10.31,-0.19,0.16,1.08
18,-28.46,-13.63,11.31,-0.19,0.16,1.09
19,-31.13,-16.69,12.72,-0.19,0.15,1.11
20,-34.27,-17.47,12.02,-0.20,0.13,1.12
21,-33.59,-25.51,15.18,-0.19,0.12,1.16
22,-35.79,-24.11,16.06,-0.16,0.12,1.18
23,-36.96,-22.92,16.24,-0.13,0.10,1.21
24,-36.95,-20.72,15.82,-0.12,0.08,1.25
25,-32.09,-21.10,16.20,-0.13,0.04,1.29
26,-25.28,-24.64,17.63,-0.15,0.01,1.38
27,-16.27,-33.54,21.10,-0.16,-0.01,1.37
28,-3.85,-28.08,20.49,-0.15,-0.03,1.45
29,14.14,-38.98,25.51,-0.18,-0.11,1.59
30,32.70,-15.39,21.56,-0.05,-0.09,1.60
31,57.91,-27.44,24.89,-0.14,-0.13,1.63
32,77.10,-18.38,24.06,-0.03,-0.08,1.59
33,96.24,-12.85,24.08,-0.01,-0.06,1.55
34,115.92,-9.45,23.24,0.00,-0.05,1.52
35,134.24,0.44,21.48,0.03,-0.01,1.47
36,150.92,12.58,19.42,0.05,0.02,1.40
37,161.45,19.13,16.79,0.04,0.07,1.31
38,168.93,20.41,16.34,0.03,0.10,1.23
39,181.18,22.93,16.72,0.02,0.11,1.18
40,193.71,28.87,15.69,0.04,0.10,1.14
41,205.21,38.21,13.22,0.04,0.11,1.08
42,215.80,46.06,11.07,0.03,0.14,0.97
43,224.23,52.44,10.03,0.04,0.17,0.88
44,223.22,57.40,9.27,0.03,0.22,0.73
45,214.12,61.37,8.52,0.03,0.29,0.62
46,196.31,68.46,9.82,0.04,0.34,0.41
47,181.13,86.66,11.15,0.10,0.45,0.40
48,162.43,69.37,11.05,-0.06,0.48,0.23
49,144.23,72.31,13.21,0.00,0.59,0.11
50,132.26,63.54,11.36,-0.04,0.58,0.12
51,106.69,57.57,9.21,-0.03,0.67,-0.00
52,81.53,55.39,5.13,-0.05,0.71,-0.03
53,55.37,51.89,3.91,-0.04,0.76,-0.07
54,30.46,42.72,1.88,-0.09,0.76,-0.05
55,7.27,36.76,-1.48,-0.11,0.77,-0.03
56,-17.91,32.85,-4.35,-0.09,0.78,-0.06
57,-46.15,29.05,-8.12,-0.11,0.81,-0.07
58,-75.02,23.33,-10.96,-0.13,0.81,-0.05
59,-104.03,16.63,-13.65,-0.12,0.79,-0.02
60,-129.21,16.90,-16.06,-0.11,0.72,0.06
61,-157.01,15.83,-19.04,-0.10,0.69,0.06
62,-186.43,10.61,-22.70,-0.13,0.68,0.08
63,-218.66,6.11,-27.05,-0.12,0.66,0.10
64,-248.56,-7.69,-29.68,-0.16,0.61,0.09
65,-280.09,-9.94,-35.19,-0.08,0.57,0.11
66,-314.05,-23.44,-39.15,-0.11,0.49,0.15
67,-351.97,-27.37,-44.58,-0.08,0.37,0.14
68,-389.18,-36.34,-47.92,-0.09,0.22,0.19
69,-413.85,-53.16,-46.50,-0.15,0.01,0.33
70,-431.48,-67.42,-41.02,-0.20,-0.20,0.51
71,-444.32,-72.53,-34.92,-0.21,-0.36,0.65
72,-446.50,-79.22,-25.56,-0.23,-0.55,0.86
73,-433.10,-85.44,-9.65,-0.19,-0.64,1.11
74,-418.21,-67.63,-1.42,-0.12,-0.72,1.34
75,-378.93,-61.68,10.55,-0.08,-0.83,1.64
76,-358.21,-16.18,4.26,0.14,-0.75,1.64
77,-306.20,-26.37,6.02,-0.11,-0.85,1.85
78,-253.95,-26.98,6.64,-0.09,-0.86,2.01
79,-195.44,-13.44,5.65,-0.10,-0.92,2.13
80,-148.43,-13.15,5.94,-0.15,-0.90,2.16
81,-107.76,-16.32,7.39,-0.17,-0.90,2.18
82,-67.88,-18.90,12.98,-0.18,-0.89,2.19
83,-29.94,-18.06,15.25,-0.13,-0.87,2.15
84,0.53,-9.62,14.93,-0.11,-0.82,2.10
85,22.53,-8.67,15.94,-0.10,-0.79,2.00
86,39.79,-4.37,17.40,-0.10,-0.74,1.93
87,52.47,0.41,18.17,-0.08,-0.67,1.81
88,73.10,-1.30,25.85,-0.12,-0.71,1.85
89,89.97,17.07,26.56,-0.08,-0.68,1.81
90,110.58,24.03,28.05,-0.09,-0.69,1.84
91,131.25,38.72,33.02,-0.10,-0.67,1.83
92,159.59,41.02,40.67,-0.14,-0.69,1.86
93,191.74,47.28,40.14,-0.17,-0.71,1.93
94,226.81,68.11,43.82,-0.09,-0.70,1.86
95,257.85,82.87,49.73,-0.14,-0.70,1.84
96,281.73,100.53,48.24,-0.12,-0.65,1.72
97,306.53,106.35,53.10,-0.14,-0.62,1.56
98,313.15,114.55,52.92,-0.09,-0.47,1.33
99,320.81,111.89,53.45,-0.11,-0.40,1.20
100,324.20,94.79,55.60,-0.17,-0.34,1.05
101,334.92,89.92,54.06,-0.15,-0.25,1.00
102,343.10,81.31,49.07,-0.16,-0.17,0.93
103,350.93,76.38,47.13,-0.12,-0.11,0.88
104,353.08,66.02,40.11,-0.13,-0.09,0.80
105,346.38,61.63,30.89,-0.09,-0.01,0.72
106,348.02,40.20,32.05,-0.16,0.02,0.63
107,325.48,43.76,19.37,-0.09,0.08,0.54
108,297.19,48.24,14.79,-0.14,0.20,0.42
109,269.19,44.98,14.11,-0.17,0.29,0.30
110,246.69,40.40,14.98,-0.18,0.37,0.21
111,228.93,41.92,15.63,-0.14,0.44,0.18
112,190.61,33.30,14.81,-0.25,0.54,0.00
113,161.83,39.40,16.15,-0.18,0.63,-0.04
114,127.79,36.37,18.21,-0.21,0.67,-0.11
115,101.69,28.43,20.05,-0.22,0.68,-0.10
116,70.61,26.08,18.75,-0.18,0.72,-0.15
117,44.02,22.21,15.53,-0.19,0.73,-0.15
118,14.12,21.76,11.08,-0.18,0.74,-0.17
119,-13.91,16.60,6.84,-0.20,0.74,-0.15
120,-46.87,9.34,1.42,-0.23,0.75,-0.18
121,-79.97,0.95,-2.81,-0.23,0.75,-0.19
122,-110.05,-12.81,-6.93,-0.26,0.72,-0.14
123,-137.44,-19.22,-11.48,-0.25,0.67,-0.04
124,-164.93,-27.50,-15.31,-0.23,0.66,-0.06
125,-199.82,-42.35,-19.62,-0.26,0.62,-0.06
126,-238.08,-58.17,-25.51,-0.28,0.59,-0.05
127,-274.09,-77.25,-27.47,-0.25,0.56,-0.02
128,-310.79,-95.54,-32.15,-0.20,0.48,0.00
129,-349.94,-104.12,-32.49,-0.10,0.38,0.03
130,-383.65,-115.68,-40.87,-0.08,0.21,0.13
131,-415.48,-117.94,-43.01,-0.00,0.03,0.20
132,-441.19,-117.98,-40.08,0.00,-0.15,0.31
133,-459.02,-97.44,-38.99,0.08,-0.34,0.53
134,-466.21,-87.18,-34.23,0.03,-0.53,0.71
135,-464.81,-83.28,-26.67,-0.03,-0.61,0.87
136,-451.28,-63.80,-19.44,-0.03,-0.73,1.08
137,-432.55,-50.46,-12.81,-0.07,-0.79,1.24
138,-398.67,-37.47,-9.37,-0.04,-0.81,1.37
139,-358.23,-30.47,-9.21,-0.01,-0.86,1.51
140,-325.94,-26.98,-13.95,-0.07,-0.85,1.52
141,-301.98,-28.24,-16.21,-0.11,-0.82,1.52
142,-271.47,-45.79,-16.20,-0.18,-0.86,1.58
143,-248.35,-53.04,-18.58,-0.12,-0.88,1.64
144,-224.12,-48.69,-17.01,-0.05,-0.93,1.73
145,-196.11,-49.60,-6.79,-0.15,-0.95,1.78
146,-160.76,-57.34,3.27,-0.20,-0.94,1.89
147,-121.27,-18.40,3.19,0.06,-1.03,2.06
148,-87.21,3.91,6.55,-0.04,-0.97,1.98
149,-46.95,13.88,14.24,-0.13,-0.99,1.97
150,-3.85,31.56,22.44,-0.04,-1.11,2.06
151,21.22,40.55,23.30,0.14,-0.96,1.79
152,44.90,45.92,25.42,-0.11,-0.95,1.83
153,66.20,41.97,25.48,-0.21,-0.90,1.73
154,90.78,40.12,23.11,-0.06,-0.90,1.70
155,112.05,52.89,24.27,-0.15,-0.87,1.74
156,125.36,50.81,32.70,-0.21,-0.84,1.60
157,138.66,51.25,38.37,-0.19,-0.79,1.57
158,147.95,65.01,39.85,-0.11,-0.76,1.46
159,166.69,60.78,43.65,-0.24,-0.73,1.50
160,179.31,70.92,42.92,-0.17,-0.72,1.45
161,192.09,79.57,45.11,-0.19,-0.67,1.43
162,213.25,77.15,48.67,-0.25,-0.66,1.41
163,228.58,84.14,47.11,-0.26,-0.63,1.40
164,243.53,86.12,46.93,-0.25,-0.60,1.34
165,263.45,86.15,47.16,-0.33,-0.61,1.33
166,281.83,87.37,47.94,-0.29,-0.58,1.28
167,301.57,87.31,47.04,-0.28,-0.54,1.24
168,318.63,81.42,45.77,-0.31,-0.50,1.15
169,330.14,75.48,46.47,-0.32,-0.42,1.05
170,345.22,62.75,48.20,-0.35,-0.38,1.00
171,357.94,54.11,43.04,-0.38,-0.37,0.99
172,355.34,65.22,40.27,-0.24,-0.24,0.86
173,352.35,57.34,40.26,-0.29,-0.18,0.78
174,343.57,50.14,40.03,-0.31,-0.08,0.70
175,325.48,41.48,40.96,-0.28,0.00,0.62
176,304.11,41.15,41.02,-0.29,0.07,0.55
177,287.42,41.94,42.89,-0.26,0.14,0.51
178,278.37,40.02,42.79,-0.25,0.20,0.49
179,273.33,31.62,39.77,-0.28,0.22,0.48
180,261.79,40.78,32.29,-0.20,0.31,0.42
181,248.09,28.02,29.85,-0.28,0.36,0.36
182,229.34,21.04,26.73,-0.27,0.42,0.27
183,206.64,8.24,26.23,-0.31,0.47,0.23
184,183.82,0.61,26.85,-0.29,0.55,0.14
185,159.27,-7.33,26.24,-0.30,0.60,0.10
186,136.18,-13.98,27.66,-0.28,0.63,0.07
187,111.98,-16.08,27.36,-0.25,0.66,0.05
188,90.49,-21.01,27.30,-0.23,0.68,0.04
189,65.47,-21.39,24.40,-0.17,0.71,0.02
190,40.84,-22.93,20.43,-0.15,0.71,0.03
191,15.69,-23.98,14.37,-0.13,0.74,0.02
192,-12.56,-24.70,7.77,-0.13,0.75,0.01
193,-38.81,-26.60,3.02,-0.15,0.75,0.01
194,-64.93,-24.89,-4.52,-0.14,0.77,0.06
195,-87.16,-25.02,-6.56,-0.14,0.71,0.06
196,-110.20,-21.66,-12.34,-0.14,0.69,0.08
197,-136.66,-30.21,-17.91,-0.18,0.67,0.08
198,-166.98,-31.91,-24.35,-0.17,0.67,0.09
199,-194.08,-41.05,-29.63,-0.18,0.62,0.10
200,-221.82,-50.32,-36.35,-0.19,0.58,0.12
201,-250.05,-57.02,-43.57,-0.17,0.53,0.16
202,-277.83,-60.95,-49.48,-0.15,0.44,0.20
203,-301.40,-76.00,-53.71,-0.16,0.34,0.27
204,-323.40,-83.68,-55.45,-0.12,0.23,0.35
205,-340.34,-85.01,-55.24,-0.10,0.12,0.46
206,-353.07,-80.52,-54.60,-0.07,0.01,0.54
207,-361.45,-78.02,-51.88,-0.08,-0.09,0.66
208,-367.59,-73.88,-50.12,-0.12,-0.23,0.79
209,-370.52,-60.21,-47.10,0.01,-0.21,0.77
210,-368.20,-59.47,-46.20,-0.04,-0.25,0.81
211,-365.30,-51.63,-47.44,-0.01,-0.31,0.86
212,-364.43,-50.61,-51.07,-0.07,-0.39,0.89
213,-360.76,-57.77,-54.82,-0.13,-0.48,0.97
214,-353.10,-76.37,-49.56,-0.30,-0.62,1.10
215,-350.64,-102.79,-36.44,-0.44,-0.70,1.14
216,-327.89,-98.32,-17.18,-0.34,-0.71,1.25
217,-300.03,-90.93,-6.20,-0.23,-0.79,1.43
218,-274.31,-69.94,-0.27,-0.09,-0.85,1.56
219,-253.56,-33.44,1.33,0.00,-0.78,1.54
220,-209.86,-8.61,15.28,0.02,-0.85,1.77
221,-197.57,27.27,10.15,-0.08,-0.71,1.51
222,-165.51,26.44,7.66,-0.17,-0.91,1.76
223,-136.00,28.84,15.83,-0.25,-0.86,1.79
224,-106.24,19.82,23.85,-0.30,-0.90,1.74
225,-82.81,18.56,25.11,-0.25,-0.86,1.72
226,-52.63,16.87,24.06,-0.19,-0.89,1.75
227,-19.27,20.06,23.33,-0.19,-0.89,1.73
228,12.90,13.73,19.28,-0.18,-0.89,1.78
229,36.03,17.34,15.80,-0.16,-0.87,1.75
230,60.87,13.11,14.38,-0.20,-0.83,1.71
231,84.41,10.70,11.10,-0.22,-0.84,1.67
232,109.07,7.25,11.83,-0.25,-0.84,1.67
233,136.84,6.90,13.22,-0.27,-0.82,1.67
234,160.53,20.92,14.67,-0.25,-0.81,1.63
235,183.22,28.67,15.21,-0.30,-0.81,1.64
236,200.82,36.82,18.38,-0.18,-0.74,1.52
237,219.04,45.39,22.92,-0.23,-0.74,1.53
238,233.24,59.71,29.56,-0.20,-0.68,1.42
239,246.79,68.60,33.86,-0.22,-0.65,1.40
240,261.94,74.78,38.93,-0.23,-0.61,1.36
241,277.88,80.15,43.34,-0.24,-0.58,1.29
242,291.07,82.79,47.22,-0.23,-0.52,1.22
243,302.20,84.40,47.83,-0.23,-0.48,1.18
244,306.66,76.52,47.24,-0.26,-0.41,1.08
245,317.57,82.85,45.86,-0.18,-0.38,1.10
246,325.21,61.16,42.55,-0.26,-0.35,1.00
247,323.02,50.15,34.47,-0.22,-0.28,0.93
248,320.72,38.35,27.08,-0.23,-0.21,0.85
249,320.56,25.28,23.08,-0.25,-0.14,0.78
250,316.87,11.80,24.78,-0.27,-0.05,0.71
251,310.70,3.69,25.15,-0.29,-0.02,0.67
252,306.27,2.99,28.96,-0.25,0.01,0.64
253,301.15,8.05,33.18,-0.19,0.09,0.63
254,287.74,20.90,33.83,-0.17,0.17,0.57
255,269.22,26.21,34.12,-0.16,0.23,0.49
256,246.55,28.14,31.08,-0.16,0.30,0.43
257,220.34,27.85,33.47,-0.14,0.39,0.37
258,192.49,25.63,29.02,-0.16,0.44,0.32
259,168.66,21.69,24.93,-0.19,0.49,0.28
260,145.04,15.94,20.34,-0.21,0.54,0.24
261,124.70,7.01,15.82,-0.25,0.54,0.23
262,99.85,-1.27,12.12,-0.25,0.58,0.17
263,80.55,-13.36,10.81,-0.26,0.57,0.22
264,60.03,-21.56,8.21,-0.25,0.58,0.21
265,39.69,-29.16,6.03,-0.24,0.58,0.21
266,15.31,-28.18,1.60,-0.21,0.60,0.20
267,-10.37,-28.56,-0.78,-0.21,0.61,0.20
268,-40.00,-31.77,-3.54,-0.21,0.63,0.19
269,-65.21,-34.41,-3.33,-0.22,0.62,0.19
270,-90.63,-28.24,-4.35,-0.18,0.59,0.22
271,-114.98,-30.98,-7.28,-0.22,0.58,0.20
272,-140.93,-33.47,-12.85,-0.21,0.57,0.23
273,-170.23,-41.86,-18.72,-0.24,0.56,0.20
274,-198.98,-53.33,-23.60,-0.22,0.55,0.19
275,-230.11,-64.96,-29.74,-0.21,0.52,0.19
276,-258.79,-75.60,-36.92,-0.17,0.45,0.19
277,-286.43,-81.73,-43.92,-0.11,0.36,0.25
278,-309.95,-89.66,-49.89,-0.08,0.25,0.31
279,-333.63,-95.27,-54.20,-0.04,0.14,0.38
280,-357.77,-100.84,-57.22,0.02,0.03,0.44
281,-377.31,-95.57,-53.89,0.04,-0.08,0.51
282,-393.88,-91.10,-52.79,0.03,-0.17,0.59
283,-398.60,-89.08,-42.27,-0.02,-0.35,0.77
284,-397.19,-80.53,-32.60,-0.06,-0.40,0.84
285,-389.63,-69.07,-22.55,-0.02,-0.46,0.89
286,-383.60,-51.98,-18.96,-0.03,-0.48,0.94
287,-372.47,-41.57,-18.87,-0.01,-0.52,0.94
288,-364.95,-32.87,-24.24,0.01,-0.58,0.96
289,-355.76,-36.95,-28.11,-0.06,-0.62,0.93
290,-352.43,-46.29,-35.37,-0.08,-0.69,0.99
291,-333.16,-61.07,-36.31,-0.23,-0.85,1.19
292,-311.30,-81.56,-31.60,-0.30,-0.90,1.36
293,-285.22,-67.24,-24.26,-0.12,-0.90,1.38
294,-245.89,-64.09,-12.18,-0.15,-1.01,1.63
295,-213.65,-26.12,-14.41,0.00,-0.96,1.73
296,-182.40,-6.81,-8.34,-0.03,-0.96,1.77
297,-151.53,1.33,0.20,-0.08,-0.94,1.72
298,-118.79,13.66,5.31,-0.10,-0.98,1.76
299,-86.37,23.82,8.26,-0.06,-1.03,1.72
300,-70.99,39.91,7.40,-0.09,-0.92,1.60
301,-17.37,20.67,22.92,-0.36,-1.03,1.85
302,4.43,32.00,23.22,-0.08,-0.98,1.70
303,24.26,29.53,23.51,-0.12,-0.91,1.63
304,43.07,38.32,19.45,-0.03,-0.89,1.56
305,64.49,37.53,16.23,-0.10,-0.89,1.55
306,83.76,34.43,15.59,-0.13,-0.87,1.50
307,104.21,28.21,14.76,-0.14,-0.84,1.48
308,123.05,27.62,13.85,-0.11,-0.80,1.46
309,143.86,27.27,13.18,-0.12,-0.79,1.45
310,164.67,29.73,12.31,-0.10,-0.78,1.43
311,179.98,35.16,11.56,-0.10,-0.73,1.39
312,193.66,38.95,10.53,-0.09,-0.71,1.37
313,201.82,56.81,9.31,-0.04,-0.65,1.33
314,213.47,64.98,11.69,-0.11,-0.66,1.33
315,225.15,71.47,16.76,-0.12,-0.63,1.29
316,243.11,77.97,23.40,-0.12,-0.62,1.29
317,261.07,91.07,25.15,-0.09,-0.59,1.23
318,278.26,96.52,29.15,-0.16,-0.58,1.21
319,296.05,114.44,31.88,-0.11,-0.52,1.16
320,311.30,101.59,36.11,-0.21,-0.51,1.10
321,315.34,95.59,34.56,-0.16,-0.46,1.01
322,318.31,83.45,34.02,-0.20,-0.41,0.93
323,317.07,76.15,28.72,-0.18,-0.32,0.85
324,315.10,65.36,22.47,-0.20,-0.26,0.79
325,313.15,51.48,16.26,-0.22,-0.20,0.77
326,311.71,36.53,10.34,-0.22,-0.14,0.72
327,312.52,20.75,-3.16,-0.22,-0.10,0.67
328,310.05,13.66,-0.21,-0.17,-0.02,0.60
329,296.58,14.73,-2.64,-0.18,0.08,0.54
330,276.96,15.66,-4.03,-0.19,0.14,0.48
331,251.82,15.28,-4.14,-0.23,0.20,0.42
332,223.27,16.05,-0.87,-0.21,0.31,0.34
333,192.67,13.86,1.68,-0.21,0.37,0.30
334,161.63,16.72,0.66,-0.20,0.43,0.26
335,134.69,17.50,-1.45,-0.20,0.45,0.26
336,112.06,12.12,-3.40,-0.22,0.47,0.24
337,90.32,8.55,-6.06,-0.22,0.50,0.24
338,66.63,7.39,-9.11,-0.21,0.51,0.24
339,44.09,3.47,-12.50,-0.24,0.52,0.24
340,21.25,2.56,-16.34,-0.22,0.51,0.24
341,-4.99,-1.19,-21.54,-0.25,0.52,0.21
342,-32.61,-7.56,-25.21,-0.28,0.52,0.21
343,-59.27,-10.95,-26.44,-0.27,0.49,0.23
344,-83.48,-19.95,-25.45,-0.32,0.46,0.24
345,-104.64,-24.21,-24.49,-0.30,0.42,0.28
346,-128.81,-28.55,-26.08,-0.29,0.42,0.27
347,-150.31,-27.36,-28.55,-0.24,0.38,0.31
348,-176.96,-34.93,-32.92,-0.26,0.38,0.28
349,-204.98,-43.92,-38.92,-0.22,0.36,0.28
350,-232.79,-51.16,-46.98,-0.17,0.32,0.29
351,-256.85,-60.23,-53.04,-0.16,0.27,0.31
352,-285.98,-65.88,-62.72,-0.10,0.20,0.31
353,-311.44,-73.02,-72.63,-0.06,0.11,0.35
354,-335.04,-82.72,-76.26,-0.06,-0.05,0.45
355,-360.70,-75.71,-81.13,-0.00,-0.15,0.50
356,-372.76,-86.60,-69.79,-0.09,-0.34,0.65
357,-386.92,-95.47,-64.52,-0.18,-0.37,0.65
358,-389.74,-79.45,-52.29,-0.09,-0.51,0.82
359,-385.07,-71.63,-39.24,-0.14,-0.59,0.86
360,-377.92,-57.89,-30.32,-0.08,-0.64,0.91
361,-362.00,-49.79,-25.27,-0.10,-0.71,0.98
362,-350.56,-35.42,-26.63,-0.02,-0.71,0.98
363,-337.98,-34.96,-34.92,-0.07,-0.80,1.04
364,-320.41,-48.50,-35.76,-0.07,-0.85,1.04
365,-314.69,-43.97,-51.04,-0.02,-0.87,1.11
366,-296.09,-62.15,-47.62,-0.27,-1.03,1.19
367,-286.84,-69.45,-56.60,-0.25,-0.98,1.15
368,-212.50,-94.26,-39.68,-0.29,-1.26,1.68
369,-204.11,-67.02,-55.74,-0.08,-1.10,1.58
370,-148.44,-88.02,-41.01,-0.18,-1.27,1.82
371,-123.02,-52.32,-46.14,0.01,-1.11,1.78
372,-92.23,-35.86,-45.62,0.01,-1.11,1.69
373,-51.25,-32.81,-34.46,-0.11,-1.08,1.75
374,-38.85,-4.35,-36.56,-0.15,-1.09,1.67
375,-13.04,-7.66,-25.48,-0.16,-1.06,1.54
376,2.93,-3.60,-18.89,-0.20,-1.04,1.50
377,16.03,5.02,-9.66,-0.15,-1.01,1.44
378,30.37,10.11,-2.75,-0.17,-1.01,1.41
379,41.79,19.71,5.13,-0.13,-0.98,1.39
380,51.48,24.32,13.15,-0.13,-0.97,1.38
381,64.32,26.37,20.08,-0.12,-0.97,1.39
382,78.03,33.22,24.20,-0.09,-0.97,1.42
383,91.39,45.18,25.77,-0.07,-0.96,1.44
384,111.91,52.41,27.57,-0.09,-0.98,1.48
385,127.71,59.83,27.97,-0.09,-0.93,1.42
386,147.82,65.08,32.14,-0.12,-0.93,1.45
387,165.53,72.66,34.96,-0.08,-0.90,1.41
388,185.40,77.88,39.10,-0.12,-0.91,1.38
389,208.03,83.69,41.13,-0.14,-0.88,1.37
390,226.29,85.98,42.92,-0.15,-0.86,1.30
391,238.35,95.36,41.51,-0.14,-0.82,1.22
392,253.68,91.53,45.59,-0.15,-0.80,1.17
393,275.30,87.94,48.98,-0.15,-0.79,1.20
394,299.36,87.08,50.95,-0.15,-0.79,1.18
395,322.12,91.83,49.65,-0.11,-0.75,1.15
396,332.61,96.23,41.92,-0.11,-0.69,1.05
397,334.93,97.66,36.31,-0.15,-0.61,0.97
398,339.76,92.61,36.44,-0.23,-0.60,0.95
399,349.56,90.72,37.28,-0.25,-0.58,0.93
400,367.31,72.76,44.66,-0.29,-0.54,0.89
401,370.98,67.71,39.15,-0.17,-0.44,0.80
402,370.31,54.27,36.02,-0.20,-0.37,0.73
403,358.84,42.53,28.14,-0.16,-0.26,0.59
404,342.26,28.06,19.91,-0.18,-0.16,0.50
405,316.98,9.42,12.93,-0.22,-0.02,0.37
406,286.27,-1.53,7.73,-0.20,0.12,0.27
407,261.10,0.95,4.78,-0.18,0.21,0.24
408,235.16,-17.45,8.66,-0.28,0.30,0.13
409,207.42,-23.08,7.71,-0.18,0.38,0.12
410,170.50,-15.76,5.42,-0.14,0.47,0.06
411,136.23,-16.11,6.73,-0.18,0.51,0.05
412,101.45,-10.47,6.56,-0.14,0.56,0.06
413,69.79,-7.37,5.42,-0.15,0.56,0.09
414,40.53,1.10,1.51,-0.12,0.55,0.11
415,12.32,0.95,-2.52,-0.16,0.54,0.12
416,-18.40,1.18,-8.31,-0.17,0.55,0.11
417,-49.37,-5.16,-14.50,-0.22,0.53,0.11
418,-78.40,-19.65,-18.53,-0.29,0.51,0.14
419,-105.54,-33.44,-20.64,-0.31,0.46,0.18
420,-128.03,-44.46,-23.53,-0.30,0.41,0.23
421,-151.11,-58.95,-27.33,-0.31,0.38,0.24
422,-180.09,-71.50,-33.54,-0.28,0.38,0.23
423,-211.79,-88.60,-38.08,-0.25,0.36,0.22
424,-245.69,-104.14,-43.77,-0.20,0.31,0.20
425,-278.63,-119.05,-50.72,-0.13,0.26,0.20
426,-311.69,-130.14,-58.02,-0.04,0.19,0.19
427,-341.89,-139.48,-66.35,0.06,0.08,0.22
428,-369.47,-143.97,-74.61,0.17,-0.03,0.24
429,-386.00,-155.34,-77.40,0.20,-0.19,0.26
430,-410.76,-141.18,-86.73,0.36,-0.38,0.38
431,-429.42,-129.73,-92.37,0.29,-0.53,0.52
432,-438.26,-116.52,-92.92,0.22,-0.69,0.64
433,-441.40,-119.60,-84.41,0.02,-0.83,0.79
434,-430.95,-132.46,-65.22,-0.12,-0.97,1.01
435,-414.29,-121.18,-51.40,-0.08,-1.01,1.12
436,-383.15,-128.41,-32.60,-0.09,-1.09,1.27
437,-357.45,-108.78,-27.71,0.10,-1.08,1.33
438,-317.89,-106.05,-17.53,0.19,-1.12,1.47
439,-279.83,-85.54,-23.98,0.32,-1.11,1.58
440,-237.10,-58.27,-30.93,0.32,-1.19,1.74
441,-205.95,-22.21,-38.72,0.23,-1.15,1.68
442,-167.76,-32.98,-45.57,0.04,-1.23,1.76
443,-118.05,-40.61,-35.02,-0.05,-1.26,1.92
444,-74.72,-44.52,-28.64,-0.11,-1.26,1.96
445,-19.16,-55.73,-10.03,-0.05,-1.23,1.96
446,12.21,-17.83,-13.92,0.10,-1.23,1.97
447,41.48,-15.33,-5.76,0.00,-1.17,1.85
448,73.44,29.02,-3.98,0.19,-1.12,1.73
449,102.61,40.08,2.27,0.09,-1.07,1.66
450,138.81,48.73,12.85,0.04,-1.05,1.66
451,166.14,62.98,22.34,0.05,-1.04,1.55
452,185.16,69.83,33.22,0.04,-0.99,1.49
453,202.15,88.46,40.53,0.09,-0.96,1.46
454,217.13,101.74,43.86,0.06,-0.89,1.43
455,240.82,112.76,51.07,0.10,-0.94,1.37
456,256.70,122.11,52.27,0.10,-0.87,1.32
457,267.94,132.75,51.27,0.13,-0.80,1.19
458,276.03,137.48,50.17,0.11,-0.76,1.10
459,279.92,132.18,48.00,0.03,-0.72,1.06
460,286.52,122.37,45.53,-0.01,-0.68,0.99
461,307.36,103.86,48.84,-0.06,-0.67,0.99
462,325.45,106.84,40.87,-0.03,-0.60,0.99
463,336.21,97.63,32.70,-0.07,-0.57,0.94
464,334.46,83.16,23.92,-0.12,-0.45,0.82
465,339.01,84.85,21.42,-0.08,-0.45,0.89
466,339.33,70.58,18.73,-0.19,-0.39,0.81
467,338.08,57.92,15.80,-0.15,-0.35,0.78
468,328.44,58.96,12.03,-0.14,-0.26,0.74
469,310.46,59.36,8.67,-0.17,-0.16,0.65
470,279.47,64.60,4.41,-0.15,-0.05,0.55
471,254.69,53.27,9.63,-0.22,0.05,0.52
472,229.42,46.34,7.16,-0.21,0.12,0.45
473,203.37,37.77,10.78,-0.22,0.25,0.43
474,190.87,23.11,9.04,-0.24,0.21,0.50
475,170.27,5.27,8.58,-0.28,0.33,0.37
476,149.37,7.63,5.57,-0.21,0.37,0.34
477,125.36,7.50,3.13,-0.20,0.41,0.35
478,100.87,4.29,0.31,-0.17,0.47,0.21
479,76.14,-8.37,2.53,-0.25,0.45,0.30
480,56.53,-1.83,1.04,-0.19,0.43,0.40
481,41.34,-16.66,2.38,-0.24,0.46,0.29
482,20.44,-23.77,-0.78,-0.16,0.44,0.36
483,-6.12,-10.00,-3.44,-0.18,0.47,0.34
484,-25.74,-19.82,-2.55,-0.26,0.47,0.33
485,-55.69,-25.53,-4.35,-0.22,0.51,0.27
486,-82.23,-28.70,-5.42,-0.24,0.49,0.33
487,-105.88,-40.02,-4.23,-0.24,0.43,0.33
488,-129.16,-50.18,-6.05,-0.21,0.42,0.32
489,-152.64,-60.56,-8.37,-0.20,0.39,0.35
490,-182.11,-69.02,-12.41,-0.17,0.37,0.31
491,-216.99,-78.20,-17.59,-0.14,0.35,0.26
492,-254.85,-82.08,-24.52,-0.06,0.30,0.25
493,-293.54,-90.67,-30.08,-0.04,0.21,0.23
494,-326.38,-94.00,-36.23,0.04,0.09,0.26
495,-353.63,-98.53,-40.89,0.09,-0.07,0.31
496,-380.09,-96.52,-45.40,0.13,-0.22,0.36
497,-401.98,-93.18,-49.91,0.14,-0.38,0.46
498,-418.89,-91.47,-52.84,0.10,-0.56,0.60
499,-425.39,-92.82,-52.76,0.05,-0.68,0.73
500,-408.06,-112.12,-38.34,-0.08,-0.85,0.95
501,-391.22,-91.33,-32.34,0.05,-0.89,1.13
502,-356.76,-87.13,-25.66,0.03,-1.01,1.35
503,-322.58,-82.44,-20.66,0.06,-1.01,1.43
504,-290.76,-66.15,-22.17,0.14,-1.01,1.45
505,-229.88,-76.27,-16.70,0.05,-1.07,1.74
506,-221.77,-38.84,-27.16,0.26,-0.91,1.47
507,-171.31,-70.87,-20.93,0.04,-0.99,1.63
508,-164.60,-24.55,-34.93,0.39,-0.97,1.56
509,-137.07,-32.99,-38.17,0.14,-1.05,1.61
510,-85.68,-45.74,-30.32,0.02,-0.97,1.74
511,-60.47,-20.79,-30.75,0.12,-1.02,1.70
512,-16.08,-33.05,-24.05,0.07,-1.04,1.75
513,16.17,-11.28,-26.37,0.18,-0.96,1.78
514,52.44,2.31,-23.62,0.12,-0.99,1.75
515,83.16,7.21,-13.44,0.12,-0.95,1.72
516,108.69,44.67,-10.17,0.24,-1.03,1.69
517,133.91,61.24,-9.53,0.12,-0.92,1.64
518,164.49,79.83,-5.45,0.16,-1.00,1.61
519,195.68,90.06,5.18,0.06,-0.99,1.56
520,224.46,96.67,17.47,0.01,-0.95,1.46
521,243.85,104.81,24.21,0.03,-0.94,1.38
522,260.61,115.04,31.19,0.03,-0.89,1.29
523,276.96,119.82,31.30,0.01,-0.86,1.25
524,291.33,112.56,33.63,-0.00,-0.81,1.18
525,305.53,110.85,33.39,0.03,-0.77,1.13
526,321.71,105.82,33.63,0.03,-0.71,1.08
527,335.65,96.35,30.52,0.02,-0.66,1.02
528,342.02,90.44,22.81,0.03,-0.54,0.92
529,345.91,107.65,11.33,0.11,-0.46,0.87
530,339.39,86.66,4.43,-0.12,-0.41,0.79
531,322.17,72.50,-2.23,-0.08,-0.30,0.66
532,296.20,62.85,-8.35,-0.13,-0.18,0.55
533,263.92,54.79,-9.98,-0.15,-0.05,0.47
534,229.69,44.69,-13.04,-0.17,0.06,0.38
535,199.04,29.74,-7.69,-0.22,0.14,0.35
536,163.40,31.33,-10.99,-0.20,0.24,0.33
537,137.42,21.73,-5.24,-0.24,0.31,0.21
538,106.69,10.90,-1.76,-0.22,0.37,0.21
539,71.08,3.10,-0.90,-0.25,0.39,0.23
540,46.03,-6.14,1.63,-0.25,0.40,0.25
541,22.29,-17.83,4.79,-0.24,0.40,0.28
542,-4.11,-25.69,4.00,-0.22,0.40,0.30
543,-34.64,-31.51,3.59,-0.21,0.42,0.31
544,-65.05,-37.33,2.60,-0.18,0.42,0.30
545,-92.69,-48.12,1.92,-0.17,0.37,0.36
546,-118.09,-55.24,-1.15,-0.12,0.32,0.42
547,-141.27,-63.47,-5.65,-0.08,0.28,0.44
548,-169.50,-67.77,-13.48,-0.03,0.26,0.45
549,-200.43,-73.80,-22.78,0.02,0.23,0.44
550,-231.07,-80.81,-31.50,0.06,0.20,0.44
551,-260.99,-82.98,-41.53,0.14,0.13,0.42
552,-289.24,-80.02,-52.34,0.20,0.07,0.41
553,-316.18,-78.76,-63.05,0.25,-0.05,0.43
554,-326.67,-78.11,-69.92,0.29,-0.19,0.49
555,-344.79,-68.69,-78.47,0.31,-0.27,0.50
556,-350.21,-81.57,-78.81,0.18,-0.43,0.54
557,-359.74,-83.07,-83.31,0.26,-0.50,0.48
558,-337.91,-117.83,-63.15,0.09,-0.86,0.71
559,-337.73,-109.37,-63.37,0.04,-0.82,0.98
560,-321.40,-117.71,-60.99,0.05,-1.00,1.18
561,-312.06,-116.49,-53.22,0.06,-0.98,1.28
562,-297.63,-99.89,-44.66,0.11,-0.98,1.43
563,-265.42,-109.73,-29.53,0.04,-1.05,1.60
564,-226.29,-81.21,-16.90,0.26,-1.07,1.71
565,-188.78,-56.78,-12.96,0.32,-1.02,1.78
566,-184.66,16.37,-33.50,0.62,-1.05,1.85
567,-162.78,78.89,-36.79,0.38,-1.04,1.80
568,-127.21,77.33,-30.26,0.13,-1.08,1.76
569,-85.19,80.15,-22.12,0.05,-1.09,1.72
570,-15.54,36.63,2.96,-0.20,-1.18,1.76
571,22.93,72.61,-0.79,-0.00,-1.07,1.77
572,63.15,69.18,10.92,-0.14,-1.08,1.64
573,116.56,44.05,28.64,-0.14,-1.05,1.65
574,157.82,60.24,34.37,0.02,-1.07,1.62
575,199.86,84.38,36.11,0.03,-1.08,1.62
576,236.06,94.84,36.43,0.01,-1.09,1.59
577,276.00,95.04,35.36,-0.01,-1.11,1.47
578,308.14,101.92,34.12,0.07,-1.10,1.41
579,325.36,112.52,29.18,0.05,-1.01,1.27
580,332.96,111.13,22.34,0.02,-0.89,1.09
581,346.50,112.21,23.33,0.06,-0.87,1.09
582,345.94,95.91,23.47,-0.07,-0.76,0.89
583,342.67,83.88,22.56,-0.03,-0.65,0.79
584,327.02,101.08,10.98,0.01,-0.46,0.76
585,320.38,97.94,13.36,-0.10,-0.46,0.67
586,309.97,73.91,11.27,-0.13,-0.35,0.57
587,280.58,67.44,4.92,-0.08,-0.22,0.51
588,249.95,54.61,-1.68,-0.11,-0.15,0.48
589,215.76,47.59,-3.01,-0.11,-0.03,0.44
590,183.36,40.98,-4.11,-0.14,0.05,0.42
591,155.86,37.48,3.54,-0.20,0.11,0.41
592,122.38,28.27,3.44,-0.19,0.20,0.29
593,91.31,12.43,4.90,-0.19,0.27,0.33
594,62.34,2.69,3.74,-0.19,0.24,0.36
595,39.86,-10.81,3.30,-0.20,0.27,0.43
596,17.74,-21.86,1.83,-0.15,0.26,0.46
597,-7.47,-29.79,-0.52,-0.14,0.27,0.45
598,-36.14,-30.90,-3.65,-0.08,0.27,0.45
599,-63.80,-32.87,-6.69,-0.07,0.25,0.47
600,-88.73,-36.47,-10.49,-0.06,0.22,0.50
601,-109.82,-42.61,-20.40,-0.05,0.15,0.54
602,-131.79,-45.05,-23.34,-0.03,0.14,0.56
603,-156.75,-46.18,-30.69,0.01,0.09,0.51
604,-180.60,-45.83,-39.34,0.03,0.07,0.52
605,-200.21,-45.13,-44.43,0.06,-0.03,0.58
606,-204.72,-59.54,-42.05,0.00,-0.15,0.68
607,-207.19,-63.80,-43.37,0.03,-0.31,0.85
608,-208.06,-43.48,-48.03,0.06,-0.46,1.02
609,-177.92,-49.73,-39.18,-0.11,-0.51,1.33
610,-159.59,-36.89,-35.95,-0.09,-0.66,1.42
611,-120.27,-40.63,-22.53,-0.18,-0.72,1.71
612,-86.56,-36.11,-8.05,-0.12,-0.81,1.90
613,-48.50,-34.92,3.19,-0.11,-0.77,1.96
614,-11.04,-11.42,13.36,0.08,-0.75,1.98
615,11.42,23.66,6.66,0.12,-0.67,1.87
616,36.41,38.34,1.34,0.06,-0.64,1.74
617,58.61,36.99,1.27,-0.02,-0.56,1.54
618,74.02,34.64,2.90,-0.11,-0.51,1.42
619,81.79,29.80,7.19,-0.15,-0.43,1.19
620,75.05,23.86,8.37,-0.19,-0.34,0.99
621,66.90,23.71,10.03,-0.14,-0.26,0.89
622,39.48,40.82,6.98,-0.09,-0.10,0.64
623,42.55,18.05,18.03,-0.27,-0.19,0.76
624,36.00,19.71,20.31,-0.15,-0.15,0.76
625,27.33,23.51,18.12,-0.11,-0.13,0.74
626,17.62,19.15,16.55,-0.10,-0.12,0.76
627,11.53,7.69,15.79,-0.10,-0.14,0.79
628,8.09,-1.51,15.97,-0.07,-0.19,0.86
629,0.14,0.00,12.43,-0.01,-0.20,0.93
630,0.23,-2.84,11.89,-0.03,-0.25,1.05
631,6.96,-7.02,13.16,-0.01,-0.28,1.12
632,11.76,-1.85,10.85,0.05,-0.27,1.17
633,14.08,3.94,7.74,0.06,-0.27,1.17
634,17.59,7.08,5.33,0.05,-0.26,1.15
635,19.59,8.34,2.66,0.04,-0.25,1.13
636,21.45,9.34,0.09,0.00,-0.26,1.15
637,25.82,8.50,-0.67,-0.03,-0.27,1.13
638,27.25,11.44,-1.68,-0.05,-0.25,1.09
639,28.17,11.88,-0.89,-0.09,-0.24,1.06
640,26.40,13.08,-0.34,-0.10,-0.23,1.05
641,24.32,11.63,2.12,-0.13,-0.23,1.03
642,20.50,15.97,2.85,-0.11,-0.22,1.05
643,21.47,11.37,6.90,-0.15,-0.23,1.05
644,19.56,12.11,9.77,-0.13,-0.23,1.04
645,19.68,13.56,13.19,-0.13,-0.24,1.06
646,19.02,15.47,14.76,-0.11,-0.23,1.07
647,18.79,16.21,14.89,-0.10,-0.22,1.06
648,17.65,17.08,12.76,-0.09,-0.22,1.05
649,16.76,15.54,10.75,-0.11,-0.21,1.05
650,17.82,10.67,10.44,-0.12,-0.20,1.03
651,16.56,8.20,9.88,-0.11,-0.19,1.01
652,14.15,2.76,10.26,-0.12,-0.17,0.99
653,12.53,4.89,8.85,-0.08,-0.16,0.97
654,9.19,5.11,6.92,-0.09,-0.15,0.97
655,7.22,0.73,6.37,-0.10,-0.14,0.93
656,2.50,1.39,5.15,-0.07,-0.12,0.93
657,-1.91,-0.26,4.21,-0.08,-0.11,0.90
658,-7.36,-1.44,3.59,-0.07,-0.10,0.90
659,-11.59,-3.73,3.04,-0.06,-0.12,0.91
660,-16.73,-3.95,1.22,-0.06,-0.11,0.92
661,-21.18,-3.98,0.21,-0.05,-0.13,0.94
662,-24.35,-5.56,0.08,-0.07,-0.15,0.98
663,-24.93,-4.99,0.23,-0.07,-0.18,1.02
664,-24.40,-5.04,1.19,-0.08,-0.21,1.06
665,-22.90,-4.67,1.76,-0.09,-0.22,1.09
666,-19.88,-3.69,2.85,-0.10,-0.25,1.13
667,-15.37,-2.27,3.37,-0.09,-0.26,1.15
668,-9.60,0.89,4.23,-0.09,-0.28,1.16
669,-4.79,2.73,4.53,-0.10,-0.27,1.16
670,-1.74,4.70,3.47,-0.10,-0.27,1.15
671,1.92,4.69,4.05,-0.12,-0.26,1.13
672,4.60,4.63,4.70,-0.13,-0.26,1.12
673,7.01,5.16,4.69,-0.13,-0.26,1.11
674,8.44,4.02,5.77,-0.13,-0.23,1.08
