,gyro_x,gyro_y,gyro_z,acce_x,acce_y,acce_z
0,17.85,-76.44,-23.92,-0.00,-0.81,1.82
1,42.87,-93.69,-38.98,-0.02,-0.86,1.90
2,68.40,-82.18,-35.47,0.10,-0.83,1.82
3,91.18,-61.27,-29.82,0.08,-0.80,1.81
4,115.27,-61.51,-27.60,0.01,-0.80,1.78
5,136.11,-38.41,-20.61,0.09,-0.78,1.71
6,155.30,-19.83,-13.08,0.11,-0.75,1.64
7,182.84,-1.19,-10.20,0.11,-0.79,1.51
8,184.34,8.02,-7.65,0.06,-0.68,1.44
9,186.78,15.37,3.30,0.05,-0.56,1.38
10,206.72,8.26,-0.26,-0.04,-0.60,1.23
11,228.75,25.08,1.48,0.08,-0.59,1.23
12,244.14,25.91,-0.35,0.01,-0.56,1.16
13,261.27,35.76,-1.82,0.06,-0.51,1.09
14,279.73,27.07,-5.91,-0.04,-0.51,1.01
15,308.11,16.43,-10.78,-0.05,-0.48,0.92
16,315.66,19.79,-14.17,0.02,-0.46,0.85
17,325.91,23.16,-17.40,0.06,-0.39,0.76
18,332.85,21.94,-22.81,0.07,-0.33,0.67
19,335.76,30.85,-24.47,0.11,-0.24,0.49
20,329.15,36.84,-25.54,0.07,-0.12,0.31
21,320.75,39.45,-24.99,0.01,-0.01,0.12
22,307.15,39.25,-21.88,-0.03,0.09,0.04
23,293.25,36.84,-18.67,-0.02,0.12,0.02
24,281.02,34.15,-17.53,-0.02,0.21,-0.13
25,257.65,29.89,-14.87,-0.06,0.36,-0.28
26,204.23,41.53,6.72,0.02,0.73,-0.43
27,180.92,46.84,3.73,-0.10,0.66,-0.61
28,159.27,27.04,0.37,-0.21,0.70,-0.65
29,115.27,40.40,9.39,-0.12,0.88,-0.72
30,88.96,43.13,8.78,-0.16,0.94,-0.75
31,64.55,41.47,20.32,-0.10,1.16,-0.89
32,15.30,22.23,-12.14,-0.15,1.15,-0.82
33,-13.71,25.95,-2.53,-0.09,1.22,-1.05
34,-54.38,37.15,14.29,-0.18,1.41,-1.16
35,-98.12,37.13,17.97,-0.27,1.35,-1.17
36,-155.89,30.93,21.15,-0.23,1.35,-1.16
37,-203.53,48.81,22.64,-0.17,1.21,-1.22
38,-257.88,64.60,27.97,-0.16,1.12,-1.09
39,-296.14,62.15,29.01,-0.15,0.82,-0.89
40,-337.86,62.55,27.01,-0.10,0.62,-0.77
41,-384.89,66.32,27.54,-0.09,0.47,-0.64
42,-422.29,75.31,33.68,-0.08,0.28,-0.54
43,-463.85,62.43,27.34,-0.17,0.15,-0.44
44,-489.11,42.63,19.31,-0.19,-0.04,-0.42
45,-500.27,15.85,4.90,-0.24,-0.32,-0.29
46,-500.27,-19.82,-4.44,-0.26,-0.55,-0.16
47,-500.27,-50.96,-22.06,-0.28,-0.84,-0.05
48,-500.27,-81.19,-26.14,-0.38,-1.47,0.34
49,-500.27,-117.08,-31.31,-0.36,-1.91,0.96
50,-481.82,-147.34,-34.96,-0.22,-2.29,1.49
51,-454.52,-119.31,-0.29,-0.01,-2.41,2.00
52,-388.41,-98.27,38.05,0.06,-2.66,2.47
53,-309.48,-73.19,66.93,0.22,-2.68,3.04
54,-230.26,-37.66,79.22,0.44,-2.66,3.51
55,-166.34,-0.99,79.68,0.52,-2.52,3.76
56,-108.52,25.66,67.86,0.46,-2.39,3.77
57,-51.57,20.34,40.85,0.29,-2.26,3.55
58,3.60,0.82,16.03,0.17,-2.04,3.23
59,66.67,-25.71,-8.85,0.07,-1.95,2.95
60,86.20,-40.73,-28.24,0.16,-1.75,3.01
61,134.56,-100.69,-56.52,0.08,-1.64,2.73
62,70.41,-62.06,-39.44,0.31,-1.25,2.53
63,127.34,-217.50,-124.00,-0.58,-1.66,2.37
64,172.12,-68.99,-59.22,0.57,-1.36,2.31
65,175.30,-11.86,-48.14,0.48,-1.13,2.35
66,194.11,-34.81,-70.66,0.20,-1.16,2.19
67,243.11,39.01,-28.79,0.64,-1.13,1.80
68,260.53,76.92,-5.28,0.27,-1.10,1.79
69,253.11,87.02,4.49,-0.28,-0.89,1.78
70,254.66,136.26,26.38,0.23,-0.89,1.63
71,262.43,140.14,27.51,0.16,-0.81,1.40
72,264.12,90.52,3.22,-0.11,-0.76,1.28
73,270.96,65.15,-8.26,-0.11,-0.74,1.21
74,287.05,50.81,-15.18,-0.21,-0.80,1.19
75,310.14,39.08,-18.40,-0.28,-0.86,1.27
76,333.10,35.74,-19.33,-0.19,-0.84,1.25
77,362.26,17.74,-30.37,-0.13,-0.85,1.14
78,380.75,15.11,-33.01,-0.05,-0.72,0.96
79,392.72,12.21,-34.92,-0.06,-0.62,0.74
80,395.92,19.25,-30.05,-0.06,-0.52,0.57
81,389.57,32.73,-20.14,-0.04,-0.39,0.38
82,378.63,41.59,-11.13,-0.07,-0.24,0.17
83,353.71,49.56,0.46,-0.07,-0.03,-0.02
84,326.24,51.45,9.45,-0.10,0.11,-0.16
85,300.96,48.09,13.53,-0.11,0.21,-0.19
86,274.75,40.12,17.30,-0.10,0.29,-0.18
87,256.93,31.02,12.90,-0.13,0.26,-0.29
88,235.28,17.19,10.18,-0.15,0.41,-0.34
89,238.58,27.95,16.55,-0.03,0.39,-0.41
90,223.28,47.27,23.07,-0.07,0.56,-0.44
91,186.44,40.67,19.76,-0.13,0.55,-0.20
92,151.60,34.99,17.69,-0.19,0.71,-0.62
93,125.24,35.59,25.89,-0.25,0.84,-0.82
94,101.60,28.53,29.21,-0.35,0.88,-0.85
95,71.59,17.82,32.52,-0.36,0.85,-0.76
96,35.54,8.52,36.15,-0.34,0.92,-0.83
97,1.18,-0.96,38.43,-0.29,0.97,-0.88
98,-32.79,-7.86,37.62,-0.24,0.96,-0.86
99,-71.47,-5.89,41.85,-0.15,0.97,-0.91
100,-104.58,-18.20,36.72,-0.17,0.88,-0.87
101,-144.79,-22.08,30.96,-0.05,0.85,-0.82
102,-177.30,-23.34,26.24,-0.03,0.80,-0.75
103,-210.84,-32.70,16.64,0.05,0.72,-0.67
104,-250.17,-9.65,32.08,0.22,0.69,-0.59
105,-280.84,-3.88,18.79,0.12,0.58,-0.55
106,-317.92,5.28,21.86,0.19,0.58,-0.55
107,-351.37,5.76,17.13,0.07,0.47,-0.46
108,-384.50,0.66,11.94,-0.02,0.35,-0.34
109,-408.00,-22.55,-2.37,-0.06,0.16,-0.20
110,-442.47,-22.90,3.08,0.04,0.07,-0.22
111,-466.70,-26.61,-1.05,-0.03,-0.15,-0.01
112,-485.45,-42.26,-6.99,-0.08,-0.38,0.08
113,-500.27,-58.92,-6.85,-0.08,-0.63,0.35
114,-500.27,-62.98,-1.94,-0.06,-0.96,0.64
115,-496.56,-33.56,17.47,0.03,-1.20,0.93
116,-474.37,-4.69,32.58,0.08,-1.44,1.31
117,-432.82,11.37,50.41,0.02,-1.64,1.67
118,-400.76,32.49,70.21,0.10,-1.69,2.24
119,-347.86,55.13,78.12,0.24,-1.82,2.72
120,-307.34,57.54,76.12,0.09,-1.69,2.98
121,-225.86,76.18,65.77,0.17,-1.82,3.23
122,-200.61,107.10,65.02,0.18,-1.54,3.04
123,-129.07,56.87,32.38,-0.20,-1.83,3.18
124,-71.95,15.69,17.24,-0.31,-1.53,2.99
125,-29.62,-49.89,-10.95,-0.26,-1.60,2.96
126,-26.58,-88.31,-42.79,-0.20,-1.40,2.79
127,10.66,-59.56,-38.20,-0.03,-1.32,2.60
128,24.11,-115.34,-69.54,-0.29,-1.16,2.48
129,161.50,-80.24,-56.17,-0.06,-1.49,2.62
130,141.53,-64.27,-40.37,-0.23,-1.10,2.46
131,160.73,-70.09,-53.50,0.00,-1.18,2.48
132,168.76,-40.49,-32.06,0.37,-0.82,1.96
133,171.77,-16.11,-38.67,0.29,-0.72,1.89
134,166.12,37.07,-14.72,0.11,-0.81,1.85
135,162.32,58.73,-2.84,0.27,-0.65,1.57
136,170.23,81.51,0.53,0.20,-0.74,1.76
137,183.69,91.60,-0.47,0.18,-0.84,1.88
138,219.57,94.21,-3.76,0.13,-0.90,1.89
139,248.35,111.36,-3.45,0.15,-0.86,1.77
140,271.05,119.59,-3.95,0.07,-0.83,1.62
141,300.29,124.52,-6.53,-0.01,-0.91,1.39
142,302.37,116.46,-6.29,-0.07,-0.77,1.33
143,318.37,112.40,-6.40,-0.07,-0.69,1.20
144,329.04,114.93,-3.16,-0.07,-0.65,1.06
145,327.91,126.43,5.95,-0.10,-0.49,0.87
146,320.11,123.18,12.58,-0.22,-0.41,0.68
147,311.83,85.02,12.08,-0.34,-0.31,0.48
148,304.47,50.49,8.73,-0.32,-0.18,0.31
149,297.71,33.45,6.11,-0.23,-0.09,0.26
150,289.80,23.34,4.75,-0.21,-0.02,0.22
151,282.55,11.91,2.93,-0.22,-0.03,0.05
152,267.11,-1.13,2.69,-0.24,0.18,-0.03
153,254.90,-18.93,1.16,-0.24,0.21,-0.14
154,241.10,-23.62,0.95,-0.17,0.29,-0.22
155,226.26,3.53,10.90,-0.04,0.39,-0.23
156,205.19,-3.74,6.84,-0.20,0.36,-0.30
157,181.30,-1.24,13.54,-0.08,0.50,-0.47
158,157.16,9.37,13.97,-0.08,0.58,-0.62
159,120.87,15.91,14.38,-0.03,0.72,-0.71
160,82.41,27.83,17.45,-0.00,0.84,-0.85
161,51.18,45.36,19.27,0.01,0.82,-0.82
162,8.02,51.82,16.00,-0.07,0.89,-0.95
163,-33.89,48.35,5.76,-0.19,0.94,-0.99
164,-99.10,63.28,18.20,-0.12,1.06,-1.14
165,-142.09,45.44,-0.43,-0.26,0.92,-1.03
166,-176.63,50.66,3.91,-0.24,0.78,-0.83
167,-221.07,59.76,17.21,-0.14,0.78,-0.65
168,-245.92,53.21,8.56,-0.23,0.51,-0.56
169,-264.87,32.66,-5.97,-0.22,0.39,-0.38
170,-293.77,23.60,-12.06,-0.21,0.35,-0.34
171,-310.35,16.79,-20.50,-0.21,0.26,-0.28
172,-331.48,-1.30,-33.31,-0.24,0.18,-0.19
173,-344.27,-19.59,-44.75,-0.23,0.08,-0.11
174,-358.75,-45.01,-51.27,-0.28,-0.01,-0.02
175,-377.59,-59.16,-52.18,-0.26,-0.04,-0.02
176,-395.36,-76.20,-49.86,-0.33,-0.18,0.07
177,-408.46,-93.59,-45.28,-0.34,-0.37,0.26
178,-413.05,-89.71,-36.66,-0.19,-0.53,0.40
179,-408.70,-90.60,-27.82,-0.15,-0.81,0.72
180,-401.18,-82.27,-23.37,-0.05,-1.00,1.14
181,-382.72,-62.52,-13.83,0.09,-1.25,1.44
182,-348.08,-39.31,-5.11,0.20,-1.43,1.80
183,-307.71,-11.05,0.89,0.30,-1.48,2.18
184,-260.67,15.28,-3.50,0.32,-1.58,2.34
185,-210.70,35.05,-9.83,0.15,-1.68,2.57
186,-140.90,4.40,-36.70,-0.05,-1.65,2.61
187,-137.25,32.81,-25.24,0.05,-1.46,2.83
188,-93.07,47.10,-17.25,-0.29,-1.52,2.80
189,-17.73,-9.80,-33.45,-0.64,-1.47,2.73
190,0.76,-29.13,-34.55,-0.62,-1.29,2.46
191,20.82,-66.38,-26.41,-0.60,-1.02,1.95
192,97.73,5.13,-13.02,-0.25,-1.47,2.47
193,26.37,-124.00,-44.72,-0.64,-0.89,2.42
194,27.04,-128.67,-54.99,-0.15,-0.92,2.19
195,63.27,-76.96,-54.05,0.15,-0.97,2.02
196,88.34,32.89,-0.38,0.15,-0.83,2.04
197,119.88,7.05,-16.79,-0.56,-0.90,2.21
198,112.32,17.10,7.86,-0.39,-0.86,2.17
199,112.20,18.63,16.05,-0.15,-0.83,2.08
200,126.24,30.50,15.04,0.01,-0.81,1.93
201,151.25,64.52,20.75,0.12,-0.75,1.76
202,158.21,69.37,12.84,0.00,-0.68,1.73
203,170.46,75.25,7.94,-0.07,-0.71,1.70
204,181.83,72.34,3.02,-0.17,-0.69,1.65
205,196.05,67.02,1.08,-0.26,-0.68,1.61
206,206.08,55.89,2.02,-0.30,-0.63,1.55
207,213.02,44.31,1.74,-0.31,-0.60,1.45
208,219.10,35.16,-0.38,-0.27,-0.55,1.33
209,223.54,36.89,4.52,-0.20,-0.49,1.25
210,231.45,47.98,8.81,-0.16,-0.46,1.15
211,234.26,42.66,9.24,-0.21,-0.42,1.13
212,240.14,41.40,10.55,-0.17,-0.38,1.03
213,242.00,37.47,10.12,-0.15,-0.32,0.96
214,248.08,36.84,9.19,-0.13,-0.30,0.89
215,253.34,36.49,8.15,-0.13,-0.28,0.87
216,258.82,32.34,6.02,-0.12,-0.25,0.84
217,259.79,25.98,3.45,-0.12,-0.19,0.76
218,259.74,19.79,0.35,-0.12,-0.14,0.67
219,260.82,10.99,-2.90,-0.13,-0.10,0.57
220,260.40,4.85,-5.94,-0.12,-0.05,0.49
221,257.39,3.33,-5.76,-0.12,0.01,0.42
222,248.89,0.06,-6.00,-0.15,0.05,0.36
223,241.22,-2.02,-4.84,-0.09,0.12,0.26
224,231.71,-0.08,-5.51,-0.07,0.17,0.20
225,222.18,3.30,-4.67,-0.05,0.21,0.15
226,211.25,7.73,-4.56,-0.06,0.26,0.04
227,196.53,11.16,-2.21,-0.03,0.35,-0.04
228,180.37,17.50,-4.40,-0.03,0.36,-0.08
229,159.66,24.31,-4.11,0.01,0.42,-0.17
230,138.46,27.25,-6.40,-0.05,0.48,-0.24
231,112.17,41.79,-3.62,-0.05,0.48,-0.26
232,91.10,40.09,-4.29,-0.17,0.52,-0.32
233,65.74,37.02,-5.48,-0.22,0.56,-0.35
234,39.42,30.11,-11.10,-0.22,0.55,-0.34
235,8.14,33.21,-4.31,-0.28,0.62,-0.33
236,-23.83,24.82,-1.86,-0.35,0.60,-0.38
237,-49.63,17.98,-2.15,-0.36,0.62,-0.42
238,-82.44,7.08,-1.98,-0.36,0.68,-0.50
239,-110.23,-1.51,-2.14,-0.35,0.66,-0.42
240,-130.17,-10.81,-6.38,-0.33,0.55,-0.29
241,-155.79,-18.05,-8.89,-0.30,0.55,-0.29
242,-180.05,-23.45,-11.69,-0.26,0.55,-0.29
243,-213.85,-30.08,-11.45,-0.26,0.59,-0.30
244,-238.24,-45.36,-16.58,-0.26,0.50,-0.23
245,-267.15,-55.91,-19.42,-0.21,0.46,-0.16
246,-295.45,-60.18,-21.59,-0.16,0.41,-0.12
247,-325.16,-63.89,-24.05,-0.15,0.34,-0.10
248,-353.92,-68.14,-26.18,-0.13,0.25,-0.07
249,-382.21,-70.37,-28.35,-0.11,0.16,-0.06
250,-410.70,-76.15,-28.55,-0.12,0.07,-0.02
251,-432.75,-88.27,-34.09,-0.09,-0.16,0.07
252,-444.69,-94.00,-40.02,-0.02,-0.41,0.25
253,-445.57,-88.75,-40.64,0.02,-0.66,0.44
254,-447.83,-85.79,-32.69,0.07,-0.89,0.67
255,-428.73,-62.58,-34.12,0.18,-1.12,0.94
256,-401.65,-25.56,-30.60,0.22,-1.34,1.37
257,-362.95,-1.13,-19.68,0.19,-1.50,1.79
258,-300.24,-4.81,-28.21,0.07,-1.62,2.15
259,-223.79,8.67,-22.81,0.06,-1.65,2.28
260,-191.94,35.07,-16.99,-0.06,-1.51,2.63
261,-170.52,29.71,-9.71,-0.25,-1.40,2.52
262,-168.58,-25.73,-25.88,-0.51,-1.22,2.39
263,-112.14,-94.73,-37.63,-0.75,-1.32,2.25
264,-117.60,-151.50,-52.37,-0.52,-1.28,2.36
265,-65.86,-167.31,-96.98,0.30,-2.07,4.00
266,64.52,11.19,-24.14,0.65,-1.27,2.08
267,85.34,62.64,-1.62,-0.09,-1.22,2.14
268,57.85,-72.43,-42.06,-0.73,-0.95,2.19
269,52.84,-109.05,-45.21,-0.44,-0.98,2.07
270,78.29,-131.80,-46.24,-0.22,-0.99,2.08
271,99.47,-92.06,-31.40,0.03,-0.88,1.89
272,83.73,-89.04,-37.60,-0.05,-0.71,1.89
273,108.82,8.43,-6.84,0.33,-0.73,1.60
274,112.35,27.44,-1.63,0.14,-0.67,1.69
275,116.38,49.66,1.50,0.26,-0.71,1.78
276,123.85,72.76,3.77,0.22,-0.69,1.83
277,134.81,92.95,5.91,0.20,-0.74,1.82
278,150.14,100.72,3.97,0.09,-0.74,1.81
279,175.21,98.61,0.15,0.02,-0.73,1.80
280,191.10,95.07,-6.85,-0.03,-0.70,1.71
281,208.06,94.12,-11.08,-0.06,-0.66,1.50
282,227.24,93.40,-13.22,-0.11,-0.61,1.34
283,240.85,99.13,-10.93,-0.12,-0.58,1.28
284,247.10,92.20,-10.20,-0.19,-0.54,1.26
285,256.37,73.56,-14.12,-0.24,-0.50,1.20
286,257.02,56.31,-16.14,-0.23,-0.42,1.08
287,255.76,41.15,-18.61,-0.23,-0.34,0.94
288,254.56,39.47,-17.53,-0.19,-0.26,0.81
289,252.66,36.23,-16.17,-0.21,-0.21,0.75
290,251.65,36.73,-13.51,-0.18,-0.17,0.73
291,248.81,36.70,-11.97,-0.16,-0.13,0.72
292,249.97,32.17,-12.23,-0.16,-0.12,0.71
293,249.76,27.89,-13.79,-0.14,-0.10,0.69
294,242.73,25.57,-13.54,-0.13,-0.04,0.61
295,233.10,24.52,-12.60,-0.14,0.04,0.51
296,221.33,23.02,-12.81,-0.14,0.11,0.37
297,208.21,25.65,-12.85,-0.14,0.16,0.32
298,199.71,28.81,-12.79,-0.16,0.19,0.32
299,190.03,24.89,-11.94,-0.21,0.21,0.29
300,173.85,24.66,-10.09,-0.20,0.26,0.23
301,165.42,24.21,-8.78,-0.22,0.27,0.20
302,149.65,21.73,-6.11,-0.23,0.32,0.16
303,130.24,26.98,0.87,-0.19,0.43,0.08
304,127.73,41.66,9.95,-0.06,0.22,0.25
305,98.21,8.05,1.04,-0.33,0.40,0.02
306,77.47,-1.95,0.12,-0.24,0.46,-0.00
307,55.36,-7.59,-0.44,-0.22,0.52,-0.16
308,31.76,-12.53,-1.33,-0.24,0.56,-0.18
309,14.90,-6.20,3.77,-0.17,0.64,-0.21
310,-17.01,-14.73,2.40,-0.33,0.81,-0.42
311,-49.15,-18.27,0.72,-0.24,0.74,-0.29
312,-78.20,-13.40,3.77,-0.26,0.80,-0.44
313,-117.73,-27.22,0.52,-0.31,0.77,-0.26
314,-148.89,-26.85,1.45,-0.27,0.66,-0.28
315,-182.43,-32.32,2.06,-0.29,0.68,-0.29
316,-219.92,-30.92,4.40,-0.24,0.71,-0.31
317,-258.47,-34.70,5.68,-0.28,0.68,-0.41
318,-303.04,-35.18,13.97,-0.26,0.70,-0.50
319,-331.25,-52.24,8.26,-0.25,0.60,-0.59
320,-373.77,-77.42,5.86,-0.20,0.37,-0.29
321,-410.90,-81.69,6.14,-0.08,0.17,-0.33
322,-442.61,-88.75,-1.89,0.09,-0.12,-0.07
323,-469.16,-60.66,-3.77,0.33,-0.38,0.02
324,-479.30,-40.41,-14.61,0.34,-0.71,0.12
325,-477.11,-36.92,-27.50,0.31,-1.09,0.52
326,-452.63,-4.72,-32.93,0.43,-1.38,1.04
327,-418.72,23.15,-31.04,0.22,-1.53,1.38
328,-352.85,17.83,-27.79,0.10,-1.74,1.95
329,-310.11,-59.57,-55.36,-0.34,-1.90,2.54
330,-272.15,-68.58,-34.87,-0.29,-1.79,2.80
331,-222.29,-41.68,-8.29,-0.11,-1.64,2.78
332,-170.70,-24.08,0.44,-0.01,-1.55,2.74
333,-115.08,-44.17,-4.98,0.03,-1.42,2.64
334,-41.62,-85.18,-32.53,-0.41,-1.81,2.46
335,28.60,-74.96,-49.50,0.26,-1.84,2.85
336,64.17,36.90,-9.68,0.41,-1.41,2.15
337,149.42,31.47,-33.36,-0.21,-1.32,2.53
338,114.90,-46.70,-48.79,-0.39,-1.02,2.22
339,138.40,-67.01,-48.63,-0.17,-1.00,2.02
340,158.70,-59.53,-43.60,-0.03,-0.94,1.97
341,164.47,-27.07,-40.05,0.06,-0.96,1.90
342,202.03,30.98,-20.49,0.21,-0.89,1.69
343,189.76,69.39,-6.55,0.22,-0.65,1.53
344,195.65,112.96,7.15,0.30,-0.58,1.27
345,205.59,150.81,16.46,0.29,-0.57,1.26
346,207.92,192.44,26.26,0.29,-0.57,1.35
347,217.16,217.66,32.11,0.18,-0.63,1.46
348,231.47,214.09,28.82,0.04,-0.67,1.48
349,244.03,183.95,22.08,-0.14,-0.58,1.47
350,257.60,136.52,7.50,-0.30,-0.62,1.28
351,260.78,97.11,-3.04,-0.36,-0.54,1.11
352,268.27,66.60,-9.98,-0.40,-0.50,1.01
353,274.03,50.11,-12.85,-0.40,-0.41,1.00
354,272.06,28.72,-13.36,-0.41,-0.30,0.94
355,278.81,-3.79,-20.67,-0.42,-0.24,0.81
356,275.19,-21.77,-22.90,-0.33,-0.13,0.67
357,273.57,-25.98,-25.47,-0.23,-0.06,0.51
358,259.25,-19.01,-21.44,-0.19,0.10,0.40
359,241.36,-5.50,-15.73,-0.16,0.17,0.29
360,224.02,9.34,-10.52,-0.14,0.24,0.25
361,207.18,15.10,-8.85,-0.15,0.29,0.19
362,188.60,16.26,-9.19,-0.18,0.36,0.08
363,164.26,16.35,-9.34,-0.22,0.47,-0.06
364,127.54,13.44,-8.56,-0.26,0.54,-0.14
365,90.67,10.20,-6.43,-0.30,0.57,-0.15
366,69.92,3.04,-6.92,-0.34,0.54,-0.19
367,50.72,-3.82,-1.31,-0.42,0.58,-0.25
368,29.66,-10.15,0.75,-0.33,0.62,-0.19
369,0.81,-24.15,1.40,-0.39,0.68,-0.21
370,-35.79,-36.14,0.79,-0.41,0.76,-0.27
371,-69.86,-48.99,-1.63,-0.45,0.74,-0.04
372,-78.18,-29.42,13.94,-0.38,0.58,-0.10
373,-121.36,-39.11,19.62,-0.40,0.68,-0.20
374,-155.16,-62.76,13.97,-0.43,0.73,-0.23
375,-190.89,-60.20,20.85,-0.28,0.74,-0.31
376,-227.77,-62.69,22.66,-0.30,0.54,-0.24
377,-261.62,-70.31,25.98,-0.33,0.58,-0.40
378,-304.56,-78.31,23.88,-0.21,0.54,-0.35
379,-344.26,-93.97,22.66,-0.29,0.34,-0.38
380,-384.27,-97.39,20.06,-0.15,0.19,-0.24
381,-415.65,-90.38,25.36,0.01,-0.01,-0.24
382,-446.61,-95.74,14.84,0.06,-0.28,-0.14
383,-471.60,-57.53,17.04,0.34,-0.51,-0.19
384,-476.87,-58.40,4.15,0.22,-0.90,0.10
385,-477.05,-52.32,-10.55,0.25,-1.24,0.53
386,-433.71,-68.23,-33.10,-0.21,-1.69,1.39
387,-403.82,-17.85,-2.12,0.49,-1.56,1.58
388,-349.19,-20.73,-10.46,0.13,-1.85,2.39
389,-289.97,-60.75,-22.85,-0.01,-1.83,2.60
390,-239.54,-78.46,-18.50,-0.08,-1.74,2.56
391,-210.73,-30.55,17.82,0.40,-1.66,2.38
392,-72.12,-82.38,-5.77,-0.32,-1.98,3.02
393,-44.11,-131.40,-33.25,-0.12,-1.66,3.62
394,35.76,-2.29,6.89,0.61,-1.42,2.48
395,75.71,-16.14,-28.11,0.07,-1.46,2.81
396,115.45,-45.77,-40.96,-0.04,-1.28,2.36
397,145.28,-25.76,-26.43,0.12,-1.13,2.01
398,160.70,-6.64,-26.76,0.07,-1.02,1.98
399,191.65,7.60,-28.99,0.11,-1.04,1.83
400,203.02,48.37,-30.35,0.25,-0.94,1.80
