,gyro_x,gyro_y,gyro_z,acce_x,acce_y,acce_z
0,17.73,1.19,5.47,-0.11,0.26,1.14
1,22.29,2.47,5.10,-0.11,0.25,1.16
2,28.82,2.03,5.34,-0.11,0.25,1.18
3,36.37,3.56,5.68,-0.10,0.25,1.20
4,45.28,3.95,6.46,-0.10,0.22,1.21
5,52.90,5.94,7.07,-0.10,0.23,1.22
6,63.04,6.99,8.67,-0.11,0.20,1.26
7,75.73,8.95,10.41,-0.10,0.18,1.30
8,89.01,11.91,11.77,-0.10,0.20,1.28
9,98.98,19.73,10.11,-0.06,0.21,1.28
10,102.63,41.44,3.53,-0.00,0.23,1.26
11,123.28,24.84,7.85,-0.11,0.25,1.19
12,130.95,32.24,4.23,-0.01,0.29,1.16
13,140.99,33.62,1.51,-0.05,0.30,1.12
14,149.40,37.62,-1.59,-0.04,0.34,1.01
15,154.67,36.60,-4.69,-0.07,0.36,0.95
16,155.59,34.27,-6.50,-0.09,0.41,0.82
17,150.17,31.08,-7.68,-0.12,0.47,0.70
18,142.14,27.15,-8.50,-0.14,0.53,0.59
19,133.39,19.65,-7.82,-0.15,0.57,0.53
20,123.56,11.79,-6.38,-0.15,0.61,0.44
21,106.29,-3.11,-5.45,-0.26,0.67,0.32
22,87.71,9.60,-4.85,-0.19,0.71,0.30
23,75.21,-5.24,-0.92,-0.21,0.73,0.28
24,53.34,1.79,-0.63,-0.12,0.76,0.18
25,28.92,8.27,-2.55,-0.04,0.81,0.11
26,17.40,0.26,-0.61,-0.09,0.75,0.14
27,-4.34,2.35,-1.48,-0.04,0.79,0.08
28,-25.53,0.47,-2.52,-0.05,0.81,0.04
29,-52.72,-0.24,-5.57,-0.03,0.87,-0.03
30,-83.27,-2.15,-8.96,-0.03,0.88,-0.08
31,-114.92,-5.24,-13.48,-0.05,0.88,-0.10
32,-146.52,-14.14,-15.85,-0.08,0.90,-0.11
33,-160.08,-69.60,-7.57,-0.20,0.84,-0.23
34,-225.89,-7.05,-28.23,0.08,0.85,-0.08
35,-251.13,-44.24,-22.29,-0.24,0.76,-0.06
36,-300.17,-41.92,-29.89,-0.11,0.71,0.02
37,-337.40,-59.51,-28.32,-0.11,0.54,0.10
38,-366.08,-67.27,-24.41,-0.06,0.37,0.28
39,-393.66,-75.71,-16.85,-0.11,0.17,0.42
40,-396.66,-66.44,-1.04,-0.01,-0.07,0.79
41,-400.11,-59.83,14.69,-0.06,-0.27,1.01
42,-392.50,-42.15,26.69,-0.07,-0.39,1.29
43,-377.08,-20.31,34.35,-0.13,-0.52,1.57
44,-333.05,-21.25,39.07,-0.14,-0.56,1.83
45,-279.25,0.02,33.74,0.18,-0.66,2.05
46,-213.63,-28.31,33.76,-0.09,-0.64,2.31
47,-168.05,0.06,15.63,0.04,-0.75,2.41
48,-99.68,-43.63,14.05,-0.22,-0.65,2.38
49,-43.01,-54.44,7.11,-0.13,-0.60,2.44
50,1.45,-57.19,0.85,-0.05,-0.56,2.42
51,38.60,-58.69,-3.30,-0.05,-0.48,2.36
52,74.58,-64.73,-3.85,-0.04,-0.40,2.30
53,94.67,-59.79,-4.58,0.03,-0.32,2.18
54,111.34,-44.50,-4.79,0.10,-0.26,2.12
55,122.70,-20.44,-3.82,0.15,-0.20,2.02
56,133.60,2.46,-0.72,0.16,-0.18,1.97
57,146.85,24.81,3.27,0.16,-0.17,1.94
58,162.12,45.25,6.81,0.15,-0.16,1.87
59,181.27,60.58,9.68,0.12,-0.16,1.82
60,204.70,70.43,13.48,0.07,-0.16,1.72
61,227.24,88.40,12.72,0.08,-0.15,1.65
62,231.04,120.15,3.97,0.09,-0.15,1.49
63,252.56,110.72,6.43,-0.02,-0.11,1.36
64,266.87,109.11,3.57,-0.03,-0.06,1.21
65,276.05,105.30,0.38,-0.07,-0.02,1.05
66,280.34,93.18,-0.75,-0.14,0.06,0.88
67,279.68,79.24,-1.44,-0.15,0.11,0.73
68,271.44,68.21,-1.80,-0.16,0.22,0.59
69,263.30,49.60,-0.09,-0.18,0.32,0.46
70,275.59,-17.71,17.42,-0.51,0.43,0.31
71,232.50,34.84,-3.68,-0.12,0.49,0.20
72,204.11,56.96,-7.04,0.11,0.46,0.18
73,206.32,-0.85,17.88,-0.31,0.62,0.06
74,152.05,40.89,3.40,0.19,0.68,-0.07
75,131.27,29.02,9.88,-0.10,0.71,-0.08
76,98.24,40.66,7.80,-0.05,0.79,-0.18
77,68.09,43.88,7.42,-0.02,0.83,-0.24
78,39.77,42.92,6.20,-0.04,0.86,-0.28
79,12.02,33.31,2.21,-0.09,0.87,-0.31
80,-24.05,29.04,-1.04,-0.11,0.92,-0.37
81,-65.24,24.82,-4.26,-0.15,0.94,-0.41
82,-105.85,12.23,-7.77,-0.19,0.91,-0.40
83,-136.41,-13.59,-5.86,-0.27,0.85,-0.33
84,-177.80,-21.28,-8.96,-0.24,0.81,-0.31
85,-217.50,-23.44,-10.23,-0.19,0.74,-0.26
86,-257.30,-31.34,-12.89,-0.15,0.68,-0.23
87,-295.33,-44.55,-13.59,-0.18,0.61,-0.17
88,-333.45,-55.83,-11.92,-0.09,0.53,-0.11
89,-369.18,-69.86,-16.78,-0.11,0.41,-0.04
90,-403.31,-79.69,-24.60,-0.00,0.30,0.03
91,-426.84,-103.97,-24.18,-0.03,0.09,0.18
92,-433.18,-115.04,-20.23,0.07,-0.14,0.43
93,-441.66,-118.82,-10.87,0.05,-0.30,0.62
94,-440.55,-115.54,7.65,0.04,-0.53,0.94
95,-417.45,-104.61,30.87,0.05,-0.73,1.30
96,-385.44,-58.41,48.82,0.15,-0.78,1.58
97,-367.76,42.87,41.40,0.47,-0.91,1.86
98,-298.69,34.76,52.43,0.03,-0.85,2.06
99,-243.01,68.81,37.60,0.34,-0.86,2.16
100,-175.80,53.77,36.21,0.07,-0.81,2.20
101,-131.21,62.26,21.56,0.00,-0.78,2.19
102,-77.11,35.39,18.40,-0.20,-0.83,2.24
103,-33.11,6.18,15.22,-0.28,-0.78,2.18
104,0.96,-11.04,5.19,-0.16,-0.65,2.10
105,23.04,-22.66,-3.56,-0.16,-0.70,2.04
106,44.76,-23.21,-8.53,-0.07,-0.59,2.01
107,65.25,-26.46,-10.82,-0.07,-0.57,1.97
108,83.18,-22.15,-11.10,-0.05,-0.54,1.94
109,100.27,-5.27,-9.08,-0.04,-0.52,1.91
110,117.65,13.10,-3.97,-0.04,-0.50,1.89
111,134.09,36.11,1.56,-0.04,-0.48,1.85
112,151.88,59.60,8.18,-0.03,-0.47,1.82
113,182.40,75.97,15.60,-0.06,-0.49,1.79
114,193.15,121.16,9.27,0.01,-0.46,1.74
115,211.74,145.71,8.69,-0.10,-0.44,1.64
116,237.27,126.08,12.46,-0.15,-0.40,1.50
117,250.55,111.22,9.34,-0.23,-0.30,1.30
118,255.47,95.54,5.47,-0.22,-0.21,1.14
119,249.89,82.05,3.62,-0.24,-0.15,0.99
120,240.82,71.45,1.91,-0.27,-0.05,0.90
121,250.12,38.67,3.65,-0.30,-0.02,0.88
122,257.98,10.98,12.23,-0.33,0.06,0.76
123,233.98,46.60,-0.29,-0.11,0.11,0.74
124,231.07,33.65,3.44,-0.25,0.14,0.64
125,217.40,36.17,4.87,-0.20,0.23,0.55
126,210.82,24.05,8.73,-0.24,0.27,0.49
127,201.19,7.34,9.05,-0.30,0.33,0.41
128,178.14,24.34,6.44,-0.10,0.36,0.38
129,169.63,0.78,11.71,-0.54,0.44,0.33
130,138.81,4.99,12.00,-0.23,0.49,0.21
131,124.72,-2.00,14.96,-0.24,0.54,0.20
132,100.61,-0.17,14.78,-0.19,0.60,0.12
133,75.71,1.85,14.24,-0.14,0.62,0.06
134,53.34,1.33,14.41,-0.15,0.64,0.05
135,29.13,1.33,14.41,-0.13,0.67,-0.00
136,-0.21,1.31,12.43,-0.13,0.71,-0.06
137,-33.77,3.13,9.60,-0.12,0.74,-0.11
138,-68.92,2.23,8.72,-0.15,0.74,-0.12
139,-100.81,-1.27,7.39,-0.17,0.72,-0.09
140,-132.70,-4.87,6.24,-0.17,0.70,-0.07
141,-163.01,-10.78,4.27,-0.17,0.65,-0.01
142,-196.63,-17.76,-0.95,-0.15,0.61,0.02
143,-230.06,-26.61,-7.24,-0.13,0.55,0.06
144,-262.40,-39.98,-14.09,-0.12,0.49,0.10
145,-294.09,-55.15,-21.33,-0.08,0.40,0.17
146,-324.34,-68.18,-31.15,-0.04,0.29,0.25
147,-349.10,-85.60,-35.94,-0.05,0.13,0.40
148,-356.14,-97.18,-33.40,0.01,-0.06,0.62
149,-375.85,-107.15,-23.91,-0.03,-0.15,0.73
150,-372.15,-111.62,-9.18,-0.09,-0.37,1.00
151,-375.83,-97.16,4.98,0.08,-0.40,1.12
152,-357.44,-82.06,25.10,0.08,-0.62,1.39
153,-328.44,-63.31,46.96,-0.01,-0.72,1.71
154,-279.68,-29.05,58.76,0.07,-0.83,1.88
155,-257.13,70.95,36.82,0.39,-0.88,2.09
156,-177.15,58.92,42.76,-0.18,-0.86,2.23
157,-118.27,69.76,30.60,-0.02,-0.83,2.20
158,-50.24,42.21,27.53,-0.14,-0.88,2.19
159,-32.29,73.56,0.40,0.01,-0.80,2.13
160,9.83,31.01,0.14,-0.26,-0.87,2.09
161,46.92,19.39,-7.94,-0.21,-0.64,2.00
162,60.66,-2.12,-16.66,-0.28,-0.68,1.87
163,84.63,-17.42,-18.02,-0.25,-0.59,1.83
164,97.34,-15.77,-20.20,-0.19,-0.55,1.76
165,116.21,-16.32,-16.73,-0.21,-0.48,1.72
166,115.48,10.11,-16.55,-0.10,-0.47,1.64
167,138.96,29.48,-6.70,-0.07,-0.44,1.72
168,152.08,50.00,2.18,-0.06,-0.44,1.67
169,169.79,67.11,11.24,-0.07,-0.42,1.63
170,190.11,90.32,16.35,-0.06,-0.38,1.58
171,206.43,112.49,15.56,-0.07,-0.40,1.54
172,222.20,121.36,15.88,-0.16,-0.30,1.38
173,245.83,118.90,18.70,-0.22,-0.33,1.33
174,252.09,103.79,15.30,-0.30,-0.29,1.18
175,250.58,92.38,7.82,-0.33,-0.20,1.07
176,248.26,79.79,3.08,-0.36,-0.13,0.95
177,244.92,66.73,0.96,-0.37,-0.07,0.87
178,242.37,54.31,0.99,-0.37,-0.02,0.81
179,241.83,43.08,2.87,-0.36,0.02,0.79
180,240.32,35.05,5.73,-0.35,0.05,0.76
181,237.95,30.84,9.97,-0.30,0.08,0.73
182,236.11,30.46,14.73,-0.28,0.11,0.69
183,227.71,33.11,19.10,-0.28,0.17,0.61
184,214.60,27.68,23.53,-0.28,0.23,0.52
185,197.62,25.10,22.92,-0.18,0.29,0.49
186,193.47,-15.13,36.56,-0.45,0.46,0.47
187,166.24,11.80,24.20,-0.30,0.45,0.32
188,154.17,-7.56,25.94,-0.27,0.50,0.27
189,140.60,-27.76,29.42,-0.26,0.54,0.18
190,109.95,-25.80,25.30,-0.16,0.61,0.12
191,80.96,-25.71,21.13,-0.19,0.63,0.14
192,68.66,-42.60,27.30,-0.19,0.66,0.10
193,23.37,-4.24,14.08,0.01,0.69,0.06
194,-1.50,-6.96,11.60,-0.13,0.66,0.06
195,-37.15,-0.90,6.93,-0.09,0.72,0.03
196,-66.58,-3.63,3.63,-0.13,0.72,0.05
197,-96.21,-7.88,0.64,-0.15,0.70,0.06
198,-124.50,-9.33,-1.56,-0.15,0.67,0.10
199,-152.93,-9.01,-5.30,-0.16,0.64,0.13
200,-184.64,-13.37,-11.04,-0.17,0.61,0.15
201,-217.50,-22.78,-16.69,-0.19,0.58,0.16
202,-250.46,-34.72,-21.92,-0.20,0.54,0.18
203,-285.66,-49.01,-30.24,-0.19,0.51,0.16
204,-315.02,-75.08,-35.42,-0.18,0.42,0.20
205,-342.79,-94.70,-42.11,-0.09,0.29,0.25
206,-369.56,-108.27,-50.78,-0.02,0.16,0.34
207,-385.11,-137.91,-49.63,-0.04,-0.12,0.56
208,-399.66,-136.56,-41.34,0.03,-0.30,0.75
209,-398.03,-127.57,-22.75,0.01,-0.48,1.01
210,-382.17,-99.66,-3.47,0.08,-0.68,1.35
211,-367.05,-44.69,9.88,0.12,-0.84,1.71
212,-344.14,30.46,21.76,0.05,-0.89,1.92
213,-294.32,64.87,36.85,-0.04,-0.88,2.08
214,-231.88,80.84,42.56,-0.10,-0.86,2.18
215,-166.82,84.09,38.14,-0.09,-0.85,2.15
216,-102.23,42.73,22.92,-0.31,-0.87,2.16
217,-17.74,20.03,17.39,-0.23,-0.81,2.12
218,17.85,16.49,-0.79,-0.26,-0.71,1.93
219,33.65,6.53,-19.36,-0.34,-0.67,1.82
220,59.59,-22.89,-25.86,-0.37,-0.63,1.77
221,74.05,-33.31,-33.11,-0.25,-0.51,1.72
222,83.39,-38.27,-35.74,-0.27,-0.51,1.65
223,101.88,-40.76,-28.37,-0.21,-0.46,1.65
224,109.79,-29.95,-23.25,-0.15,-0.42,1.58
225,119.27,-9.39,-15.85,-0.09,-0.43,1.61
226,131.73,20.46,-7.21,-0.05,-0.40,1.61
227,150.34,52.14,1.50,-0.03,-0.39,1.61
228,168.40,84.12,6.98,-0.00,-0.38,1.59
229,190.15,105.82,8.34,-0.02,-0.37,1.56
230,214.02,102.46,9.95,-0.06,-0.29,1.47
231,229.79,128.98,2.67,0.04,-0.26,1.43
232,249.59,107.21,3.76,-0.23,-0.29,1.32
233,256.67,95.95,-3.18,-0.24,-0.19,1.18
234,262.41,70.43,-7.97,-0.34,-0.16,1.08
235,256.05,48.34,-14.96,-0.37,-0.05,0.97
236,246.03,34.46,-19.33,-0.36,-0.02,0.86
237,243.82,15.19,-15.56,-0.39,0.02,0.82
238,241.19,12.89,-13.68,-0.34,0.01,0.83
239,242.02,4.73,-6.55,-0.35,0.05,0.79
240,246.18,-17.13,5.22,-0.40,0.11,0.71
241,230.17,3.37,2.99,-0.24,0.15,0.66
242,243.42,-41.62,19.07,-0.37,0.21,0.56
243,213.94,2.89,1.05,-0.11,0.27,0.53
244,202.20,4.93,2.35,-0.22,0.34,0.43
245,189.22,-11.31,3.57,-0.29,0.42,0.31
246,164.44,-6.34,-3.04,-0.19,0.48,0.28
247,139.18,-9.18,-6.18,-0.23,0.53,0.23
248,111.62,-3.21,-7.94,-0.24,0.56,0.15
249,87.79,-13.02,-4.53,-0.29,0.62,0.13
250,65.36,-18.84,-5.45,-0.27,0.62,0.12
251,40.06,-19.97,-5.50,-0.24,0.62,0.12
252,10.82,-24.64,-6.67,-0.28,0.64,0.11
253,-26.92,-5.15,-13.11,-0.24,0.64,0.12
254,-54.93,-17.71,-10.89,-0.31,0.64,0.12
255,-77.71,-29.39,-6.85,-0.31,0.60,0.17
256,-104.09,-31.76,-5.68,-0.28,0.58,0.19
257,-127.92,-36.64,-6.43,-0.27,0.54,0.21
258,-155.56,-41.53,-8.85,-0.26,0.55,0.22
259,-187.05,-47.44,-12.05,-0.25,0.54,0.22
260,-221.39,-57.60,-15.02,-0.25,0.51,0.21
261,-257.63,-69.15,-19.97,-0.23,0.50,0.20
262,-291.94,-87.83,-23.88,-0.19,0.44,0.23
263,-326.15,-112.66,-28.40,-0.16,0.34,0.24
264,-352.41,-129.27,-29.85,-0.09,0.21,0.36
265,-368.17,-152.67,-26.41,-0.04,-0.03,0.56
266,-371.62,-165.44,-13.08,0.03,-0.24,0.78
267,-376.12,-159.91,1.21,0.10,-0.37,0.94
268,-363.02,-140.06,14.56,0.12,-0.53,1.27
269,-334.14,-100.95,24.24,0.17,-0.68,1.55
270,-320.23,-7.02,14.85,0.25,-0.79,1.80
271,-276.63,42.44,21.71,0.06,-0.84,1.95
272,-209.76,49.02,30.78,-0.05,-0.77,2.05
273,-166.44,71.51,22.17,0.07,-0.76,1.95
274,-112.00,35.80,12.35,-0.12,-0.77,1.93
275,-49.92,25.82,4.18,-0.09,-0.62,1.91
276,-30.84,40.70,-17.02,-0.11,-0.67,1.84
277,12.17,-1.28,-15.36,-0.32,-0.61,1.83
278,22.98,-18.12,-24.40,-0.25,-0.51,1.69
279,36.31,-31.18,-28.15,-0.19,-0.48,1.66
280,53.73,-41.21,-27.16,-0.17,-0.43,1.62
281,57.95,-39.51,-25.83,-0.13,-0.40,1.54
282,69.24,-32.82,-19.80,-0.09,-0.40,1.54
283,70.23,-9.77,-17.37,-0.00,-0.29,1.48
284,75.83,7.45,-10.61,-0.03,-0.32,1.47
285,84.03,26.69,-3.28,-0.01,-0.29,1.45
286,90.23,47.88,1.65,-0.00,-0.27,1.43
287,100.11,61.76,6.63,-0.03,-0.27,1.43
288,111.01,72.69,9.15,-0.05,-0.26,1.41
289,126.81,80.08,8.02,-0.07,-0.28,1.39
290,144.31,86.26,3.65,-0.10,-0.27,1.38
291,157.56,90.55,-4.76,-0.13,-0.26,1.33
292,190.90,94.32,-5.18,-0.14,-0.33,1.37
293,204.92,104.06,-12.20,-0.16,-0.29,1.30
294,212.99,113.24,-19.85,-0.19,-0.23,1.19
295,221.04,100.69,-18.90,-0.27,-0.17,1.11
296,212.67,86.43,-16.82,-0.32,-0.08,0.93
297,208.29,69.95,-11.88,-0.33,-0.03,0.90
298,211.66,27.79,1.42,-0.40,-0.01,0.85
299,205.88,14.41,0.76,-0.33,0.06,0.79
300,198.92,5.60,-2.11,-0.33,0.11,0.73
301,189.11,13.76,-2.06,-0.28,0.14,0.72
302,188.66,2.75,2.06,-0.27,0.16,0.67
303,183.68,1.79,2.66,-0.20,0.20,0.64
304,173.80,1.62,1.08,-0.18,0.24,0.56
305,159.18,1.08,0.26,-0.18,0.31,0.50
306,142.15,1.44,-0.53,-0.19,0.33,0.44
307,128.50,-4.47,-0.73,-0.22,0.38,0.40
308,128.78,-44.98,8.60,-0.41,0.43,0.33
309,97.18,-17.82,-1.50,-0.16,0.45,0.31
310,73.62,-13.45,-3.66,-0.23,0.47,0.29
311,58.09,-21.79,-1.27,-0.27,0.48,0.29
312,35.07,-22.66,-1.62,-0.24,0.48,0.26
313,14.40,-27.21,-0.87,-0.26,0.49,0.26
314,-6.56,-34.23,0.37,-0.25,0.52,0.25
315,-27.37,-45.10,2.90,-0.25,0.53,0.23
316,-47.54,-60.63,7.05,-0.22,0.54,0.24
317,-63.34,-84.43,15.13,-0.22,0.54,0.25
318,-99.27,-63.91,8.32,-0.12,0.50,0.30
319,-126.44,-51.04,6.93,-0.15,0.46,0.34
320,-148.66,-49.47,5.13,-0.12,0.47,0.36
321,-173.48,-53.73,1.53,-0.15,0.45,0.36
322,-200.79,-60.46,-2.47,-0.15,0.44,0.34
323,-231.48,-70.55,-8.84,-0.13,0.42,0.35
324,-261.04,-82.63,-17.45,-0.08,0.35,0.37
325,-288.92,-92.87,-22.99,-0.01,0.25,0.45
326,-319.92,-97.63,-27.34,0.05,0.10,0.55
327,-339.79,-99.91,-24.84,0.03,-0.06,0.68
328,-363.95,-73.11,-28.44,0.15,-0.22,0.84
329,-369.18,-74.98,-14.35,0.06,-0.36,1.02
330,-367.54,-56.14,-2.15,0.12,-0.52,1.19
331,-356.29,-39.39,8.64,0.06,-0.62,1.42
332,-338.06,-3.98,15.74,0.00,-0.71,1.58
333,-274.64,-1.86,23.69,-0.01,-0.82,1.80
334,-209.13,-2.61,26.61,0.03,-0.85,1.94
335,-139.18,-15.94,21.89,-0.07,-0.90,2.04
336,-94.69,1.71,3.02,-0.00,-0.80,1.99
337,-48.29,-8.79,-4.67,-0.05,-0.86,2.00
338,-0.09,-20.09,-10.99,-0.06,-0.79,2.07
339,24.64,-26.64,-15.89,-0.06,-0.73,1.92
340,39.22,-24.78,-23.10,-0.10,-0.69,1.79
341,63.91,-23.30,-22.56,-0.04,-0.60,1.75
342,68.90,-13.94,-25.59,-0.02,-0.51,1.61
343,87.05,-17.18,-19.92,-0.05,-0.51,1.60
344,92.29,1.69,-18.12,0.04,-0.41,1.51
345,103.50,16.12,-13.13,0.04,-0.43,1.51
346,119.19,35.98,-7.80,0.09,-0.38,1.53
347,137.97,52.44,-4.06,0.09,-0.37,1.51
348,154.73,68.67,-2.84,0.08,-0.35,1.49
349,175.97,74.60,1.48,0.05,-0.36,1.45
350,179.60,115.08,-9.65,0.13,-0.33,1.44
351,199.10,108.02,-10.69,-0.04,-0.34,1.36
352,213.07,105.51,-18.47,-0.05,-0.30,1.31
353,232.84,97.15,-21.39,-0.09,-0.30,1.26
354,241.31,90.11,-21.05,-0.14,-0.23,1.16
355,243.48,77.28,-18.98,-0.20,-0.20,1.09
356,242.50,56.87,-14.46,-0.26,-0.15,1.00
357,240.00,29.11,-9.21,-0.29,-0.06,0.89
358,231.28,1.79,-7.73,-0.36,0.04,0.77
359,213.83,-12.02,-10.24,-0.27,0.12,0.69
360,187.91,-0.20,-16.49,-0.12,0.20,0.66
361,183.44,-34.63,-1.91,-0.32,0.24,0.59
362,147.85,-4.72,-16.60,-0.11,0.38,0.54
363,139.86,-19.45,-8.67,-0.18,0.34,0.39
364,113.40,-13.53,-8.82,-0.07,0.43,0.29
365,78.17,4.70,-14.00,-0.09,0.47,0.31
366,53.36,11.82,-15.63,-0.12,0.47,0.31
367,30.11,13.65,-15.92,-0.14,0.47,0.29
368,7.59,11.65,-16.06,-0.19,0.45,0.30
369,-16.81,6.03,-17.19,-0.25,0.45,0.29
370,-44.53,-5.89,-16.81,-0.32,0.46,0.26
371,-65.42,-26.05,-12.90,-0.35,0.45,0.28
372,-88.58,-40.70,-9.57,-0.34,0.41,0.34
373,-107.82,-52.78,-5.83,-0.30,0.37,0.38
374,-126.29,-62.79,-4.35,-0.27,0.35,0.40
375,-152.70,-69.21,-5.92,-0.22,0.36,0.38
376,-187.05,-78.44,-6.93,-0.19,0.35,0.37
377,-211.13,-87.34,-9.85,-0.14,0.35,0.32
378,-247.13,-99.45,-11.19,-0.06,0.23,0.36
379,-279.54,-113.44,-7.91,-0.04,0.13,0.46
380,-299.02,-114.67,-4.12,0.01,-0.02,0.59
381,-323.27,-96.90,-4.84,0.14,-0.13,0.69
382,-326.61,-71.65,-4.32,0.21,-0.28,0.89
383,-333.33,-50.50,-2.35,0.17,-0.39,1.03
384,-331.02,-19.53,-5.33,0.24,-0.52,1.23
385,-301.33,-28.64,4.23,0.08,-0.61,1.44
386,-273.63,-16.18,2.35,0.09,-0.65,1.54
387,-226.27,-33.86,7.98,-0.01,-0.71,1.64
388,-188.40,-36.53,3.37,0.06,-0.68,1.71
389,-150.31,-41.36,-3.45,0.04,-0.72,1.75
390,-114.69,-52.90,-9.19,0.04,-0.70,1.75
391,-88.84,-57.10,-15.69,0.04,-0.69,1.74
392,-65.47,-56.50,-19.13,0.01,-0.74,1.79
393,-37.68,-45.50,-13.83,0.04,-0.74,1.82
394,11.15,-37.22,-9.48,0.19,-0.66,1.92
395,22.40,-22.81,-7.24,0.12,-0.66,1.73
396,43.13,-9.62,-4.92,0.09,-0.61,1.70
397,62.72,3.02,1.73,0.16,-0.55,1.63
398,64.00,29.80,-4.66,0.19,-0.48,1.50
399,78.46,36.64,-1.07,0.15,-0.46,1.47
400,89.10,47.33,-1.34,0.13,-0.43,1.42
401,99.74,48.43,-2.02,0.10,-0.41,1.39
402,112.46,49.63,-3.97,0.08,-0.39,1.37
403,134.69,45.94,-5.74,0.05,-0.41,1.40
404,157.77,46.60,-8.12,0.05,-0.40,1.39
405,178.87,48.69,-11.97,0.04,-0.41,1.37
406,197.80,44.70,-12.95,0.02,-0.40,1.35
407,208.67,37.82,-8.32,-0.01,-0.31,1.23
408,213.94,34.52,-8.56,-0.04,-0.29,1.22
409,212.17,28.08,-9.28,-0.05,-0.26,1.14
410,209.02,21.28,-11.05,-0.06,-0.21,1.08
411,203.40,25.56,-16.17,-0.01,-0.17,1.04
412,201.86,35.22,-15.60,0.02,-0.13,1.02
413,201.91,37.34,-16.23,-0.02,-0.12,1.02
414,204.66,36.76,-10.31,-0.03,-0.09,0.98
415,205.11,36.70,-13.80,-0.03,-0.05,0.90
416,191.36,45.86,-14.14,-0.02,0.06,0.77
417,174.00,38.09,-13.73,-0.08,0.11,0.68
418,154.76,21.63,-13.01,-0.16,0.18,0.58
419,129.74,11.44,-14.11,-0.15,0.23,0.52
420,106.90,5.47,-16.50,-0.14,0.26,0.46
421,87.45,-0.11,-15.88,-0.15,0.30,0.47
422,69.65,-4.84,-13.44,-0.16,0.31,0.44
423,51.54,-11.30,-12.79,-0.19,0.31,0.43
424,31.27,-14.05,-7.01,-0.16,0.33,0.40
425,11.44,-19.63,-4.17,-0.19,0.35,0.39
426,-11.31,-27.56,-2.37,-0.18,0.38,0.35
427,-38.03,-35.30,0.98,-0.18,0.38,0.34
428,-66.72,-35.85,1.76,-0.15,0.39,0.31
429,-88.89,-39.53,3.36,-0.15,0.36,0.37
430,-108.18,-42.47,3.15,-0.14,0.31,0.43
431,-121.66,-50.34,4.53,-0.17,0.30,0.47
432,-148.03,-52.24,4.14,-0.12,0.31,0.42
433,-170.00,-69.34,8.98,-0.15,0.31,0.39
434,-197.25,-81.39,11.71,-0.08,0.30,0.34
435,-229.66,-87.25,12.14,-0.03,0.24,0.35
436,-266.67,-77.86,8.17,0.10,0.17,0.38
437,-292.03,-83.50,8.79,0.13,0.06,0.40
438,-317.24,-57.22,-0.67,0.23,-0.06,0.51
439,-331.34,-26.61,-6.06,0.25,-0.23,0.71
440,-344.84,-17.37,-6.50,0.14,-0.35,0.77
441,-333.66,-16.37,-7.37,0.25,-0.48,0.97
442,-308.50,-33.45,-1.86,0.15,-0.66,1.31
443,-279.27,-27.30,-0.60,0.07,-0.74,1.57
444,-248.53,-29.10,8.96,0.09,-0.77,1.59
445,-211.28,-27.04,12.79,0.08,-0.83,1.78
446,-165.62,-36.93,20.47,0.14,-0.81,1.86
447,-131.16,-29.48,17.50,0.22,-0.78,1.86
448,-96.15,-34.17,14.08,0.23,-0.80,1.89
449,-60.49,-14.78,1.27,0.37,-0.72,1.89
450,-28.70,-9.04,-8.61,0.28,-0.75,1.84
451,-6.14,4.84,-21.36,0.29,-0.66,1.71
452,16.43,10.02,-27.34,0.22,-0.63,1.60
453,31.42,5.97,-29.07,0.12,-0.56,1.45
454,38.55,8.06,-28.99,0.11,-0.51,1.36
455,45.86,12.32,-25.88,0.07,-0.48,1.29
456,48.90,22.64,-22.82,0.07,-0.45,1.23
457,52.31,30.03,-17.76,0.05,-0.44,1.20
458,53.22,40.69,-12.55,0.06,-0.40,1.15
459,53.94,52.03,-8.21,0.03,-0.39,1.14
460,64.60,48.53,-2.49,-0.03,-0.42,1.17
461,61.97,62.23,-4.50,0.02,-0.37,1.13
462,69.95,55.82,-3.65,-0.03,-0.43,1.17
463,74.92,48.85,-4.73,-0.02,-0.38,1.15
464,79.24,40.03,-7.37,-0.04,-0.44,1.21
465,91.77,31.33,-7.30,-0.08,-0.47,1.29
466,106.61,26.81,-6.90,-0.06,-0.48,1.29
467,118.82,20.43,-7.02,-0.05,-0.44,1.24
468,124.58,18.81,-9.50,-0.03,-0.40,1.19
469,128.18,22.14,-10.50,-0.01,-0.37,1.17
470,126.03,32.06,-15.13,0.01,-0.32,1.13
471,134.73,10.72,-7.80,-0.04,-0.28,1.05
472,127.05,24.35,-10.37,0.02,-0.24,1.00
473,121.51,27.18,-7.39,-0.03,-0.23,0.96
474,119.28,29.51,-7.94,-0.01,-0.18,0.98
475,120.87,25.45,-7.22,-0.05,-0.19,0.92
476,118.06,22.20,-7.42,-0.04,-0.14,0.89
477,114.29,17.24,-8.15,-0.06,-0.12,0.88
478,104.23,15.51,-10.37,-0.07,-0.07,0.80
479,90.41,13.33,-8.87,-0.17,-0.03,0.78
480,78.08,16.11,-10.95,-0.07,-0.03,0.75
481,75.65,10.32,-5.34,-0.10,-0.09,0.85
482,71.94,19.47,-0.60,-0.11,-0.16,0.92
483,81.28,20.08,7.91,-0.17,-0.17,0.97
484,94.81,25.13,8.11,-0.04,-0.16,1.00
485,103.74,23.50,5.18,-0.02,-0.18,1.00
486,115.15,13.22,0.73,-0.01,-0.20,0.98
487,124.76,6.03,-5.24,0.00,-0.15,0.96
488,129.51,-5.57,-9.69,-0.04,-0.10,0.89
489,125.69,-15.47,-14.11,-0.04,-0.06,0.85
490,120.67,-19.10,-16.41,-0.03,-0.01,0.77
491,113.65,-15.56,-17.30,-0.02,0.04,0.72
492,100.92,-5.95,-18.02,-0.01,0.09,0.65
493,90.60,-1.10,-14.90,-0.01,0.11,0.61
494,86.21,-5.13,-14.67,-0.02,0.11,0.63
495,90.92,-22.38,-8.70,-0.08,0.04,0.71
496,104.27,-40.29,3.79,-0.14,0.10,0.78
497,93.21,-25.01,6.72,-0.05,0.11,0.71
498,70.73,-16.87,3.74,-0.15,0.18,0.68
499,48.76,-6.63,-2.46,-0.08,0.24,0.66
500,32.14,-16.73,0.12,-0.15,0.24,0.63
501,17.60,-26.78,4.49,-0.18,0.29,0.63
502,5.73,-44.29,6.92,-0.20,0.28,0.65
503,-9.33,-58.75,9.25,-0.18,0.33,0.61
504,-29.88,-70.52,11.74,-0.14,0.36,0.59
505,-55.25,-73.65,12.02,-0.09,0.37,0.59
506,-78.64,-71.33,14.23,-0.03,0.34,0.63
507,-98.35,-69.48,16.66,0.04,0.30,0.66
508,-115.48,-62.43,17.89,0.11,0.29,0.68
509,-138.66,-47.45,17.45,0.19,0.30,0.66
510,-161.37,-36.89,17.74,0.22,0.29,0.64
511,-195.05,-22.17,13.86,0.22,0.27,0.57
512,-222.58,-13.07,9.60,0.24,0.21,0.59
513,-252.37,-10.11,4.41,0.23,0.12,0.59
514,-274.41,-11.56,2.06,0.17,-0.09,0.72
515,-288.15,-7.83,1.65,0.13,-0.30,0.88
516,-285.68,-4.53,11.39,0.07,-0.52,1.14
517,-269.83,5.33,18.78,0.02,-0.60,1.38
518,-236.17,18.47,26.82,0.05,-0.81,1.73
519,-176.85,0.43,34.11,0.01,-0.83,2.07
520,-112.92,-19.33,30.85,0.12,-0.86,2.15
521,-45.92,-33.02,23.13,0.31,-0.78,2.15
522,-8.38,-19.27,2.52,0.40,-0.70,2.02
523,18.38,-9.89,-14.06,0.36,-0.56,1.81
524,32.37,6.53,-26.89,0.30,-0.49,1.66
525,44.84,20.55,-29.40,0.22,-0.41,1.54
526,55.18,21.98,-25.83,0.14,-0.35,1.38
527,56.29,22.85,-23.02,0.11,-0.25,1.24
528,47.94,35.89,-20.76,0.09,-0.18,1.07
529,35.28,39.56,-15.28,-0.01,-0.13,0.96
530,24.81,38.52,-6.73,-0.06,-0.08,0.90
531,11.65,37.22,0.20,-0.09,-0.05,0.86
532,-0.60,35.83,4.75,-0.09,-0.07,0.85
533,-7.82,29.53,8.31,-0.10,-0.11,0.90
534,-13.21,22.38,10.14,-0.10,-0.16,0.96
535,-16.98,12.24,10.79,-0.09,-0.19,0.99
536,-16.95,2.72,10.73,-0.07,-0.23,1.06
537,-14.73,-8.60,10.35,-0.07,-0.25,1.14
538,-7.94,-20.34,11.36,-0.05,-0.29,1.18
539,-1.57,-29.71,13.59,0.04,-0.27,1.20
540,-1.33,-17.04,7.71,0.16,-0.28,1.21
541,9.31,-24.32,7.57,0.13,-0.28,1.25
542,8.95,-21.34,3.04,0.18,-0.23,1.19
543,11.59,-14.96,0.35,0.20,-0.22,1.18
544,7.18,-3.42,-3.69,0.18,-0.19,1.14
545,11.27,-0.93,-1.62,0.13,-0.21,1.13
546,7.66,3.27,-0.92,0.14,-0.17,1.08
547,8.02,8.34,-0.67,0.14,-0.18,1.08
548,4.52,11.19,-1.08,0.12,-0.17,1.05
549,2.24,14.14,-1.01,0.10,-0.17,1.05
550,1.37,13.83,0.21,0.07,-0.18,1.04
551,-0.58,13.63,1.39,0.06,-0.17,1.02
552,-2.81,14.60,1.05,0.06,-0.17,1.02
553,-5.31,14.38,1.08,0.04,-0.17,1.02
554,-6.67,13.91,0.98,0.04,-0.18,1.02
555,-7.80,11.15,1.05,0.03,-0.18,1.02
556,-7.60,8.55,0.92,0.03,-0.20,1.04
557,-6.49,6.08,0.35,0.02,-0.20,1.04
558,-5.18,3.05,-0.52,0.03,-0.20,1.05
559,-4.20,0.96,-1.40,0.03,-0.20,1.05
560,-3.48,0.11,-2.29,0.04,-0.20,1.04
561,-2.93,-1.34,-3.04,0.03,-0.20,1.04
562,-2.63,-1.16,-3.47,0.03,-0.20,1.05
563,-2.32,-0.79,-3.34,0.02,-0.20,1.03
564,-1.36,0.92,-2.63,0.03,-0.20,1.05
565,-0.34,2.08,-2.05,0.02,-0.20,1.05
566,-0.38,2.92,-1.88,0.01,-0.19,1.04
567,-0.67,3.54,-1.11,0.01,-0.20,1.04
568,-1.39,3.69,-0.41,0.00,-0.20,1.03
569,-1.97,4.67,-0.05,0.01,-0.20,1.02
570,-2.05,3.82,0.98,-0.00,-0.20,1.03
571,-1.83,3.48,1.83,0.00,-0.20,1.03
572,-1.97,3.53,2.09,0.00,-0.20,1.02
573,-2.58,4.24,1.62,0.02,-0.20,1.02
574,-3.08,4.14,1.56,0.01,-0.19,1.02
575,-3.05,3.10,2.03,-0.00,-0.19,1.02
576,-2.64,1.82,2.61,0.00,-0.19,1.03
577,-2.58,0.75,3.36,-0.00,-0.20,1.03
578,-3.05,0.49,3.47,0.01,-0.19,1.03
579,-2.92,1.11,3.65,0.01,-0.19,1.04
580,-2.78,1.68,4.11,0.02,-0.20,1.04
581,-2.64,2.66,4.14,0.02,-0.19,1.04
582,-2.44,3.42,4.11,0.01,-0.20,1.04
583,-1.83,2.53,4.46,0.00,-0.20,1.05
584,-0.73,1.18,4.92,-0.00,-0.20,1.06
585,0.67,-0.23,5.04,-0.01,-0.20,1.06
586,0.99,-0.82,5.07,-0.01,-0.20,1.06
587,1.31,-0.69,5.24,0.00,-0.20,1.06
588,1.68,0.15,5.24,0.02,-0.20,1.06
589,1.11,0.21,5.40,0.01,-0.20,1.06
590,0.52,1.10,4.96,0.01,-0.19,1.05
591,0.00,1.28,5.02,0.00,-0.19,1.06
592,-0.32,1.10,4.89,0.00,-0.18,1.05
593,-0.31,0.79,5.25,0.00,-0.19,1.06
594,-0.40,0.26,5.44,0.00,-0.18,1.07
595,-0.29,0.73,5.77,0.01,-0.19,1.06
596,-0.17,1.19,6.18,0.00,-0.19,1.06
597,-0.20,1.39,6.69,0.01,-0.19,1.06
598,0.17,1.63,6.69,0.01,-0.19,1.06
599,0.35,1.98,6.63,0.00,-0.18,1.05
600,0.47,1.62,6.52,0.01,-0.19,1.06
601,0.85,0.85,6.18,0.01,-0.19,1.06
602,1.15,-0.11,6.23,0.00,-0.18,1.06
603,1.04,-0.34,6.18,0.01,-0.19,1.07
604,0.70,0.43,5.97,0.01,-0.18,1.06
605,0.24,0.67,5.91,0.02,-0.18,1.07
606,-0.14,0.72,5.92,0.02,-0.19,1.06
607,-0.35,1.40,5.74,0.02,-0.18,1.07
608,-0.24,1.57,5.65,0.02,-0.19,1.08
609,-0.21,1.51,5.59,0.01,-0.19,1.08
610,0.09,1.18,5.54,0.02,-0.19,1.09
611,1.07,1.50,5.56,0.02,-0.19,1.08
612,1.56,2.03,5.15,0.02,-0.18,1.08
613,2.26,3.11,4.96,0.01,-0.19,1.08
614,2.58,3.62,5.33,0.01,-0.19,1.06
615,2.29,3.68,5.08,0.01,-0.19,1.07
616,2.08,3.80,5.04,0.01,-0.19,1.06
617,2.23,3.54,5.13,0.01,-0.20,1.06
618,2.67,3.04,5.47,-0.00,-0.20,1.07
619,3.04,3.01,6.00,0.00,-0.20,1.06
620,3.31,3.50,6.35,0.01,-0.20,1.07
621,3.44,4.09,6.40,0.01,-0.20,1.06
622,2.89,5.05,6.34,0.01,-0.19,1.06
623,3.02,5.31,6.44,0.00,-0.20,1.05
624,2.96,4.99,5.91,0.00,-0.20,1.03
625,2.70,4.37,5.92,-0.01,-0.19,1.03
626,2.52,3.36,5.86,-0.00,-0.19,1.03
627,1.97,2.18,5.68,-0.01,-0.18,1.01
628,1.76,0.64,5.85,-0.02,-0.18,1.02
629,1.40,-1.07,6.26,-0.01,-0.18,1.01
630,0.52,-1.71,6.44,-0.01,-0.18,1.02
631,-0.37,-2.50,6.66,-0.00,-0.17,1.03
632,-1.07,-2.18,6.96,-0.00,-0.18,1.02
633,-0.98,-1.79,7.19,0.01,-0.18,1.04
634,-0.66,-0.78,7.50,0.02,-0.19,1.04
635,0.02,0.32,7.95,0.02,-0.18,1.05
636,0.58,1.15,7.65,0.02,-0.19,1.05
637,1.53,1.69,7.21,0.02,-0.19,1.06
638,1.97,1.01,7.07,0.01,-0.19,1.06
639,2.41,0.26,7.18,0.00,-0.19,1.05
640,2.56,-0.38,7.07,0.00,-0.18,1.06
641,2.70,-1.07,6.56,0.01,-0.19,1.06
642,2.20,-0.96,6.40,0.01,-0.18,1.06
643,1.82,-0.41,6.31,0.02,-0.18,1.06
644,1.40,1.34,6.64,0.02,-0.17,1.06
645,1.36,2.43,6.96,0.02,-0.18,1.07
646,1.51,2.90,7.28,0.03,-0.18,1.07
647,1.34,3.33,7.19,0.02,-0.18,1.05
648,1.18,3.51,7.01,0.01,-0.18,1.06
649,1.44,3.39,7.11,0.01,-0.18,1.06
650,1.27,3.54,6.58,0.03,-0.17,1.06
651,1.44,3.31,6.09,0.02,-0.18,1.05
652,1.39,3.01,5.80,0.02,-0.18,1.06
653,1.36,2.81,5.36,0.02,-0.17,1.05
654,1.24,3.39,4.84,0.02,-0.18,1.05
655,1.34,3.15,4.15,0.02,-0.18,1.05
656,1.30,3.28,3.73,0.01,-0.18,1.06
657,1.07,3.22,3.77,0.01,-0.18,1.06
658,0.87,2.89,3.66,0.00,-0.17,1.06
659,0.67,2.20,3.86,-0.01,-0.18,1.06
660,0.72,1.37,3.92,-0.00,-0.17,1.06
661,0.84,0.40,3.97,-0.00,-0.17,1.06
662,0.85,-0.03,3.76,-0.00,-0.18,1.07
663,0.75,-0.03,3.86,-0.00,-0.18,1.07
664,1.01,0.82,3.83,0.01,-0.18,1.08
665,1.30,1.31,3.82,0.00,-0.17,1.07
666,1.28,0.98,3.53,0.01,-0.18,1.07
667,1.18,1.45,3.57,-0.01,-0.18,1.07
668,0.87,1.05,3.42,0.00,-0.17,1.07
669,0.76,0.40,3.73,-0.00,-0.18,1.06
670,0.82,0.34,3.76,0.01,-0.18,1.08
671,0.99,0.95,3.36,0.02,-0.18,1.08
672,1.45,1.15,3.22,0.01,-0.18,1.09
673,1.97,1.94,2.93,0.01,-0.18,1.09
674,2.47,2.46,2.85,-0.00,-0.18,1.09
675,2.63,3.07,2.93,0.01,-0.18,1.08
676,2.72,3.42,2.79,-0.00,-0.19,1.08
677,2.99,4.21,2.79,-0.00,-0.19,1.07
678,3.37,4.70,2.96,-0.01,-0.18,1.08
679,3.22,4.96,3.28,-0.01,-0.18,1.07
680,3.16,4.89,3.57,-0.01,-0.18,1.06
681,3.28,4.53,3.92,-0.02,-0.17,1.06
682,3.24,3.76,4.49,-0.02,-0.17,1.05
683,3.45,2.84,4.32,-0.02,-0.18,1.05
684,3.76,2.12,4.52,-0.02,-0.18,1.04
685,3.65,1.63,4.43,-0.02,-0.19,1.04
686,3.69,0.78,4.29,-0.03,-0.18,1.04
687,3.59,-0.67,4.40,-0.02,-0.18,1.03
688,3.39,-1.89,4.66,-0.02,-0.17,1.02
689,3.05,-2.50,4.67,-0.02,-0.17,1.02
690,2.55,-2.99,4.64,-0.00,-0.17,1.02
691,1.82,-2.24,4.35,0.01,-0.16,1.03
692,1.40,-1.63,4.11,0.01,-0.16,1.03
693,1.19,-0.82,3.98,0.00,-0.16,1.04
694,1.01,-0.60,4.21,0.01,-0.16,1.04
695,1.48,-0.60,3.98,0.00,-0.17,1.05
696,1.77,0.34,3.82,0.00,-0.17,1.05
697,2.05,0.15,3.73,0.01,-0.18,1.05
698,2.20,-0.21,3.48,0.01,-0.17,1.04
699,2.08,-0.60,3.01,0.01,-0.18,1.05
700,2.47,-0.63,2.72,-0.00,-0.18,1.04
701,2.60,-0.78,2.99,-0.00,-0.17,1.04
702,2.23,-0.89,3.30,-0.00,-0.17,1.03
703,1.97,-0.35,3.66,0.01,-0.16,1.04
704,0.95,0.63,3.44,0.01,-0.16,1.03
705,0.44,1.05,3.34,0.01,-0.17,1.03
706,-0.06,1.79,3.39,0.02,-0.17,1.03
707,-0.34,2.18,3.18,0.02,-0.17,1.04
708,-0.21,1.45,2.85,0.01,-0.17,1.04
709,-0.44,0.82,2.49,-0.00,-0.16,1.03
710,-1.08,0.17,1.94,0.01,-0.16,1.04
711,-1.48,-0.93,1.60,-0.00,-0.16,1.04
712,-1.86,-1.65,1.33,0.00,-0.16,1.04
713,-1.69,-2.23,1.37,0.00,-0.17,1.06
714,-1.36,-2.14,1.40,0.01,-0.17,1.07
715,-1.07,-1.39,1.48,0.02,-0.17,1.07
