,gyro_x,gyro_y,gyro_z,acce_x,acce_y,acce_z
0,-0.61,5.16,-1.57,0.12,-0.28,1.01
1,-0.72,5.36,-1.76,0.12,-0.29,1.02
2,-0.46,5.19,-2.17,0.11,-0.29,1.02
3,-0.17,5.21,-2.11,0.09,-0.29,1.02
4,0.58,4.90,-1.10,0.09,-0.30,1.03
5,1.18,2.92,-0.78,0.08,-0.30,1.03
6,1.95,1.16,0.14,0.07,-0.31,1.03
7,1.80,-0.49,0.47,0.08,-0.30,1.02
8,1.98,-2.12,0.90,0.09,-0.30,1.02
9,2.21,-2.72,1.51,0.10,-0.30,1.03
10,2.53,-3.95,1.60,0.11,-0.30,1.02
11,2.14,-4.92,1.44,0.12,-0.29,1.00
12,2.24,-4.58,1.68,0.13,-0.29,1.01
13,2.17,-4.98,1.65,0.13,-0.29,1.00
14,2.23,-6.31,1.40,0.13,-0.29,1.01
15,2.15,-7.48,1.45,0.14,-0.29,1.02
16,1.95,-7.89,1.27,0.14,-0.28,1.03
17,2.00,-8.81,1.31,0.16,-0.28,1.03
18,2.24,-9.04,1.05,0.16,-0.27,1.03
19,2.27,-9.30,0.89,0.17,-0.28,1.03
20,2.12,-9.27,0.37,0.18,-0.28,1.03
21,2.26,-8.82,0.53,0.18,-0.27,1.05
22,2.47,-8.60,0.27,0.18,-0.28,1.05
23,2.69,-7.83,-0.37,0.19,-0.28,1.06
24,2.92,-6.29,-0.43,0.21,-0.29,1.06
25,3.22,-4.82,-0.41,0.20,-0.29,1.06
26,3.73,-4.20,-0.66,0.19,-0.29,1.06
27,4.14,-4.29,-0.99,0.18,-0.28,1.06
28,4.55,-2.95,-0.06,0.18,-0.28,1.05
29,4.61,-1.36,0.78,0.17,-0.28,1.05
30,4.35,0.37,1.33,0.17,-0.28,1.04
31,4.50,1.44,1.92,0.16,-0.27,1.04
32,4.23,1.89,2.24,0.16,-0.27,1.02
33,3.85,2.24,2.76,0.15,-0.27,1.02
34,3.80,1.80,2.93,0.14,-0.26,1.02
35,3.66,0.58,3.04,0.13,-0.26,1.01
36,3.83,-0.58,3.25,0.13,-0.26,1.01
37,3.94,-2.09,3.34,0.13,-0.26,1.01
38,4.09,-1.51,3.76,0.14,-0.26,1.02
39,3.80,-1.28,4.23,0.14,-0.25,1.01
40,3.98,-1.54,4.63,0.14,-0.25,1.01
41,3.74,-1.92,4.73,0.13,-0.24,1.00
42,3.33,-2.31,5.13,0.13,-0.24,1.01
43,3.01,-2.78,5.28,0.14,-0.24,1.00
44,3.05,-3.31,5.27,0.15,-0.24,1.01
45,2.78,-3.02,5.28,0.15,-0.24,1.02
46,3.02,-2.52,5.34,0.15,-0.24,1.02
47,3.04,-1.95,5.63,0.16,-0.24,1.01
48,3.24,-2.15,5.19,0.15,-0.24,1.02
49,2.98,-2.29,5.01,0.15,-0.23,1.02
50,3.16,-2.50,4.70,0.15,-0.24,1.01
51,2.78,-2.14,4.93,0.15,-0.24,1.01
52,2.24,-2.21,4.92,0.15,-0.24,1.00
53,2.00,-1.48,4.90,0.15,-0.23,1.01
54,2.58,-2.56,4.98,0.14,-0.25,1.00
55,2.29,-2.06,4.47,0.15,-0.24,1.01
56,2.03,-0.96,4.75,0.14,-0.24,1.00
57,1.74,-1.11,5.24,0.14,-0.24,1.00
58,1.85,-1.79,5.37,0.14,-0.24,1.01
59,1.63,-2.21,5.44,0.15,-0.24,1.00
60,1.60,-1.57,5.21,0.16,-0.24,1.00
61,1.94,-1.60,5.04,0.17,-0.24,1.00
62,1.89,-1.56,4.35,0.17,-0.25,1.00
63,2.05,-1.82,4.11,0.16,-0.24,1.00
64,1.48,-1.69,3.73,0.17,-0.24,0.99
65,1.34,-0.98,3.54,0.17,-0.24,1.00
66,1.63,-1.53,3.02,0.17,-0.24,1.00
67,1.51,-2.24,2.58,0.17,-0.24,0.99
68,1.34,-2.85,2.05,0.18,-0.24,1.00
69,1.40,-3.27,1.48,0.18,-0.24,1.01
70,1.40,-3.39,1.08,0.19,-0.24,1.02
71,1.53,-2.95,0.89,0.18,-0.25,1.02
72,1.18,-1.68,0.90,0.19,-0.26,1.03
73,1.25,-0.64,1.07,0.18,-0.25,1.03
74,1.28,0.67,1.10,0.19,-0.26,1.03
75,1.71,1.71,1.25,0.19,-0.26,1.03
76,1.66,2.55,0.81,0.19,-0.26,1.04
77,1.94,2.27,0.55,0.18,-0.26,1.03
78,1.66,2.73,0.21,0.17,-0.26,1.02
79,1.54,3.40,0.27,0.16,-0.26,1.02
80,1.68,4.06,0.66,0.16,-0.27,1.02
81,1.54,4.49,0.84,0.16,-0.26,1.01
82,1.65,5.24,1.34,0.15,-0.26,1.01
83,1.57,5.94,1.77,0.15,-0.26,1.01
84,1.37,6.38,1.79,0.16,-0.26,1.01
85,1.10,6.35,2.26,0.15,-0.26,1.01
86,1.01,6.85,2.46,0.15,-0.26,1.01
87,0.90,6.15,2.52,0.15,-0.26,1.01
88,0.78,6.79,2.44,0.15,-0.26,1.01
89,0.58,6.52,2.50,0.15,-0.25,1.01
90,0.35,6.14,2.14,0.14,-0.24,1.01
91,-0.11,5.08,1.89,0.14,-0.25,1.02
92,-0.06,4.23,1.77,0.13,-0.25,1.01
93,-0.12,3.40,1.89,0.13,-0.25,1.01
94,-0.17,2.72,1.51,0.12,-0.24,1.00
95,0.66,2.81,2.03,0.13,-0.24,1.00
96,-0.24,0.79,1.13,0.13,-0.25,1.01
97,0.08,-1.16,1.18,0.13,-0.25,1.02
98,0.12,-1.74,1.04,0.14,-0.25,1.03
99,0.31,-1.13,1.27,0.15,-0.25,1.03
100,0.79,-0.73,1.02,0.16,-0.26,1.04
101,0.58,-0.41,0.96,0.16,-0.26,1.04
102,0.56,0.60,0.98,0.16,-0.25,1.04
103,0.41,0.92,0.99,0.15,-0.26,1.04
104,0.14,0.63,0.82,0.16,-0.26,1.03
105,-0.11,1.42,0.93,0.15,-0.26,1.04
106,-0.09,1.08,0.85,0.15,-0.26,1.04
107,-0.03,1.07,0.87,0.15,-0.26,1.04
108,0.03,1.47,1.08,0.13,-0.25,1.04
109,0.67,2.08,1.82,0.14,-0.26,1.04
110,0.55,2.81,2.58,0.13,-0.25,1.04
111,0.53,2.92,2.52,0.13,-0.26,1.03
112,0.31,2.64,2.44,0.14,-0.26,1.04
113,0.66,3.08,2.44,0.15,-0.25,1.04
114,0.70,3.59,2.61,0.14,-0.25,1.03
115,0.78,3.39,2.43,0.14,-0.25,1.03
116,0.99,3.63,2.35,0.15,-0.25,1.03
117,0.98,3.66,2.09,0.14,-0.25,1.02
118,0.95,3.33,1.36,0.15,-0.25,1.02
119,0.67,2.56,0.73,0.15,-0.24,1.00
120,0.60,1.16,0.41,0.13,-0.25,1.02
121,0.67,-0.64,0.02,0.13,-0.25,1.01
122,0.55,-0.56,0.00,0.13,-0.25,1.01
123,0.76,-0.44,0.17,0.13,-0.26,1.03
124,0.56,-0.09,-0.03,0.14,-0.25,1.02
125,0.55,0.78,0.58,0.14,-0.26,1.02
126,0.78,1.47,1.10,0.13,-0.26,1.03
127,1.02,0.85,1.59,0.13,-0.26,1.03
128,0.92,0.32,1.39,0.12,-0.26,1.02
129,1.15,0.00,1.66,0.14,-0.26,1.01
130,1.21,-0.49,1.80,0.13,-0.26,1.01
131,1.10,-1.18,1.34,0.14,-0.26,1.02
132,1.22,-1.40,1.28,0.14,-0.26,1.02
133,1.34,-0.96,1.16,0.15,-0.26,1.02
134,1.22,-0.06,1.27,0.16,-0.25,1.01
135,1.62,-1.04,0.98,0.14,-0.26,1.01
136,1.69,-1.60,0.85,0.14,-0.25,1.01
137,1.53,-1.27,0.64,0.15,-0.25,1.01
138,1.40,-1.22,0.76,0.15,-0.25,1.01
139,1.40,-1.05,0.58,0.16,-0.25,1.02
140,1.16,-0.49,0.02,0.16,-0.24,1.01
141,0.98,0.50,-0.43,0.17,-0.24,1.02
142,0.99,0.66,-0.29,0.17,-0.25,1.02
143,0.93,1.19,-0.81,0.17,-0.24,1.02
144,0.82,1.42,-0.69,0.16,-0.24,1.01
145,0.35,1.79,-0.85,0.15,-0.24,1.01
146,-0.03,1.60,-1.02,0.16,-0.24,1.00
147,-0.27,1.11,-1.19,0.15,-0.24,1.01
148,-0.49,1.27,-1.48,0.15,-0.23,1.01
149,-0.85,1.62,-1.60,0.14,-0.24,1.01
150,-1.15,1.62,-1.65,0.14,-0.24,1.01
151,-1.18,2.12,-1.37,0.15,-0.25,1.00
152,-1.40,2.50,-1.56,0.14,-0.26,1.02
153,-1.62,2.82,-1.54,0.15,-0.26,1.02
154,-1.62,1.86,-1.89,0.14,-0.26,1.02
155,-1.44,1.76,-1.86,0.14,-0.26,1.03
156,-1.36,1.82,-1.91,0.14,-0.26,1.04
157,-1.21,1.95,-1.74,0.14,-0.26,1.05
158,-0.78,2.05,-1.86,0.14,-0.27,1.05
159,-0.73,3.18,-1.63,0.13,-0.27,1.05
160,-0.69,4.35,-1.04,0.13,-0.27,1.04
161,-0.63,4.72,-0.69,0.12,-0.27,1.03
162,-0.52,4.43,-0.79,0.13,-0.27,1.03
163,-0.56,3.80,-0.64,0.12,-0.27,1.02
164,-0.20,2.69,-0.27,0.11,-0.27,1.01
165,-0.34,1.57,-0.23,0.10,-0.27,1.01
166,-0.47,0.66,0.21,0.11,-0.27,1.02
167,-0.14,0.44,0.31,0.12,-0.27,1.02
168,0.06,0.18,0.47,0.12,-0.26,1.03
169,-0.03,0.21,0.76,0.12,-0.26,1.02
170,-0.11,-0.98,0.67,0.13,-0.26,1.02
171,-1.13,0.18,0.50,0.13,-0.24,1.02
172,-0.99,-1.88,0.78,0.12,-0.24,1.02
173,-0.69,-4.24,-0.17,0.13,-0.26,1.04
174,-0.64,-5.11,-0.55,0.14,-0.26,1.02
175,-0.66,-4.73,-0.76,0.15,-0.26,1.03
176,-0.60,-5.07,-1.10,0.16,-0.26,1.04
177,-0.05,-4.82,-1.63,0.16,-0.27,1.05
178,0.17,-4.32,-1.68,0.16,-0.25,1.04
179,0.32,-4.11,-2.40,0.16,-0.26,1.04
180,0.53,-4.43,-2.90,0.16,-0.26,1.05
181,0.46,-5.77,-3.28,0.16,-0.26,1.05
182,0.55,-5.89,-3.73,0.15,-0.26,1.05
183,0.55,-5.50,-3.62,0.15,-0.27,1.05
184,0.60,-3.92,-3.05,0.16,-0.26,1.05
185,0.79,-2.44,-2.73,0.15,-0.26,1.06
186,0.78,-1.44,-2.18,0.16,-0.26,1.05
187,1.15,-1.44,-2.00,0.15,-0.26,1.06
188,1.13,-1.25,-1.60,0.15,-0.26,1.05
189,1.11,-0.76,-1.27,0.15,-0.26,1.04
190,1.07,-0.14,-1.07,0.15,-0.25,1.04
191,1.05,-0.52,-1.25,0.15,-0.25,1.05
192,1.08,-1.07,-1.33,0.15,-0.25,1.04
193,1.21,-0.99,-1.13,0.15,-0.26,1.03
194,1.36,-1.01,-1.39,0.15,-0.25,1.03
195,1.05,-1.39,-1.56,0.15,-0.26,1.03
196,1.13,-2.00,-1.69,0.14,-0.25,1.03
197,1.16,-2.26,-1.74,0.15,-0.25,1.03
198,0.85,-2.32,-1.68,0.15,-0.26,1.02
199,0.82,-1.91,-1.85,0.15,-0.25,1.03
200,0.82,-1.65,-1.53,0.14,-0.24,1.02
201,0.58,-1.01,-1.18,0.14,-0.26,1.01
202,0.26,-1.05,-1.25,0.14,-0.25,1.02
203,0.31,-1.13,-1.05,0.14,-0.25,1.02
204,0.27,-1.63,-0.87,0.14,-0.25,1.02
205,0.12,-1.76,-1.25,0.14,-0.25,1.01
206,0.18,-2.03,-1.13,0.14,-0.25,1.01
207,-0.02,-3.51,-1.39,0.14,-0.25,1.01
208,0.21,-4.09,-1.51,0.14,-0.25,1.02
209,0.37,-3.73,-1.22,0.15,-0.25,1.02
210,0.52,-3.42,-1.31,0.15,-0.25,1.02
211,0.58,-3.88,-1.45,0.15,-0.24,1.03
212,0.81,-3.63,-1.39,0.15,-0.26,1.03
213,0.52,-3.71,-1.44,0.14,-0.25,1.03
214,0.69,-4.05,-1.10,0.14,-0.25,1.02
215,0.76,-3.92,-0.63,0.15,-0.26,1.02
216,0.72,-3.76,-0.44,0.15,-0.26,1.03
217,1.05,-3.18,-0.12,0.15,-0.25,1.01
218,0.90,-1.85,0.29,0.15,-0.25,1.02
219,0.81,-1.66,0.56,0.14,-0.26,1.02
220,1.13,-0.93,0.76,0.16,-0.25,1.02
221,1.27,-0.17,1.10,0.15,-0.25,1.00
222,1.16,-0.37,0.87,0.15,-0.25,1.01
223,1.07,-1.44,0.66,0.14,-0.24,1.00
224,0.99,-2.03,0.64,0.15,-0.24,1.00
225,1.01,-2.09,0.58,0.15,-0.24,1.00
226,1.04,-2.96,0.58,0.15,-0.24,1.00
227,0.79,-2.89,0.96,0.14,-0.24,1.00
228,0.61,-2.14,1.16,0.15,-0.23,0.99
229,0.44,-1.86,1.16,0.15,-0.23,1.01
230,0.26,-2.17,1.36,0.15,-0.23,1.00
231,-0.12,-1.45,1.44,0.16,-0.23,1.01
232,0.03,-1.08,1.39,0.15,-0.25,1.01
233,0.29,-0.93,1.51,0.15,-0.24,1.01
234,0.38,-0.75,1.34,0.15,-0.25,1.01
235,0.29,0.00,1.69,0.16,-0.25,1.01
236,0.02,-0.23,1.47,0.15,-0.24,1.01
237,0.26,-0.85,1.50,0.16,-0.25,1.01
238,-0.17,-0.72,1.42,0.16,-0.25,1.00
239,-0.29,-0.66,1.10,0.16,-0.25,1.01
240,0.06,-0.98,1.08,0.16,-0.25,1.01
241,0.12,-0.73,0.99,0.16,-0.24,1.01
242,0.64,-0.52,1.19,0.16,-0.25,1.01
243,0.76,-0.61,1.47,0.16,-0.25,1.01
244,0.52,0.15,1.60,0.15,-0.24,1.00
245,0.47,0.15,1.95,0.16,-0.24,1.00
246,0.63,-0.26,1.85,0.15,-0.24,0.98
247,0.14,-0.95,1.82,0.15,-0.24,0.98
248,-0.41,-1.63,1.86,0.16,-0.24,0.98
249,-0.76,-2.21,1.59,0.16,-0.24,0.98
250,-1.07,-2.06,1.62,0.16,-0.24,1.00
251,-0.96,-2.02,1.65,0.16,-0.24,1.00
252,-1.07,-1.91,1.79,0.16,-0.25,1.01
253,-1.18,-0.87,2.09,0.16,-0.24,1.01
254,-1.10,-0.06,2.31,0.15,-0.25,1.00
255,-0.93,0.32,2.75,0.16,-0.25,1.01
256,-0.95,-0.14,2.92,0.16,-0.24,1.01
257,-0.73,0.02,2.43,0.16,-0.24,1.00
258,-0.98,0.03,2.44,0.16,-0.24,1.00
259,-0.98,0.02,2.55,0.17,-0.24,1.01
260,-1.02,-0.34,2.11,0.17,-0.24,1.00
261,-1.18,0.32,2.40,0.16,-0.25,1.01
262,-1.27,0.41,2.49,0.17,-0.24,1.01
263,-1.48,0.44,2.61,0.17,-0.24,1.01
264,-1.51,0.18,2.87,0.16,-0.24,1.01
265,-1.59,0.38,2.67,0.17,-0.25,1.00
266,-1.83,0.66,2.79,0.17,-0.24,1.00
267,-1.89,0.56,2.43,0.17,-0.24,1.01
268,-1.95,0.46,2.47,0.16,-0.25,1.01
269,-1.71,0.41,2.46,0.16,-0.26,1.01
270,-2.00,0.93,2.82,0.15,-0.25,1.01
271,-2.29,1.53,3.18,0.16,-0.25,1.01
272,-2.38,1.91,3.33,0.16,-0.25,1.01
273,-2.38,2.26,2.95,0.17,-0.26,1.01
274,-2.75,-0.29,1.77,0.16,-0.25,1.01
275,-3.07,-1.13,1.05,0.16,-0.25,1.02
276,-3.33,-0.15,1.25,0.16,-0.26,1.03
277,-2.76,-0.61,0.79,0.16,-0.26,1.05
278,-2.23,-1.22,0.90,0.15,-0.27,1.04
279,-1.54,-1.94,0.95,0.16,-0.27,1.05
280,-1.13,-1.66,1.31,0.16,-0.27,1.05
281,-1.04,-0.40,1.86,0.16,-0.28,1.04
282,-1.34,-0.24,1.88,0.16,-0.27,1.04
283,-1.22,-0.09,1.77,0.15,-0.26,1.05
284,-1.34,0.50,1.59,0.16,-0.27,1.04
285,-1.59,-0.11,1.56,0.15,-0.27,1.04
286,-1.33,0.35,1.69,0.14,-0.27,1.03
287,-0.87,-0.92,1.66,0.13,-0.27,1.05
288,-0.58,-2.41,1.63,0.14,-0.27,1.04
289,-0.69,-2.75,1.65,0.15,-0.27,1.03
290,-0.60,-2.20,1.94,0.15,-0.27,1.03
291,-0.85,-2.17,2.20,0.15,-0.27,1.04
292,-0.52,-2.82,2.09,0.15,-0.27,1.03
293,-0.35,-4.20,1.74,0.15,-0.27,1.04
294,-0.27,-4.49,2.02,0.16,-0.27,1.04
295,0.17,-3.79,2.03,0.16,-0.27,1.05
296,0.08,-3.34,2.03,0.17,-0.27,1.04
297,0.26,-3.13,1.86,0.16,-0.27,1.04
298,0.37,-3.01,1.94,0.17,-0.27,1.03
299,0.24,-2.61,2.08,0.17,-0.27,1.04
300,0.31,-3.36,1.69,0.17,-0.27,1.04
301,-0.03,-2.85,1.71,0.17,-0.27,1.04
302,-0.06,-2.61,1.71,0.17,-0.26,1.04
303,0.34,-2.23,1.69,0.17,-0.27,1.04
304,0.47,-1.40,1.73,0.17,-0.27,1.03
305,0.53,-1.42,1.82,0.17,-0.26,1.03
306,0.60,-1.77,1.89,0.17,-0.27,1.04
307,0.47,-1.80,1.86,0.17,-0.26,1.04
308,0.53,-1.63,1.88,0.18,-0.27,1.04
309,0.67,-1.86,1.91,0.17,-0.27,1.04
310,0.87,-1.86,1.57,0.18,-0.27,1.04
311,0.96,-1.83,1.53,0.19,-0.27,1.05
312,0.99,-1.31,1.28,0.18,-0.27,1.03
313,0.78,-0.56,1.24,0.18,-0.26,1.04
314,0.93,-0.98,1.24,0.18,-0.27,1.03
315,1.19,-2.18,0.81,0.17,-0.26,1.02
316,1.04,-2.99,0.95,0.17,-0.26,1.02
317,0.79,-2.92,0.70,0.17,-0.26,1.02
318,0.38,-2.95,0.98,0.17,-0.26,1.02
319,0.56,-3.11,0.81,0.17,-0.26,1.02
320,0.20,-2.79,1.11,0.16,-0.26,1.02
321,0.02,-1.56,1.51,0.18,-0.26,1.02
322,0.15,-1.21,1.40,0.18,-0.26,1.01
323,0.03,-1.13,1.31,0.17,-0.26,1.03
324,0.67,-1.56,1.36,0.16,-0.27,1.02
325,1.01,-1.56,1.24,0.18,-0.27,1.01
326,0.90,-0.49,1.74,0.17,-0.26,1.01
327,0.72,-0.56,1.71,0.17,-0.26,1.02
328,0.69,-1.42,1.07,0.17,-0.26,1.01
329,0.56,-1.86,1.01,0.17,-0.26,1.01
330,0.82,-2.32,1.15,0.17,-0.26,1.01
331,0.75,-2.53,1.22,0.17,-0.25,1.01
332,0.82,-1.94,1.36,0.17,-0.25,0.99
333,0.67,-1.53,1.53,0.18,-0.26,1.00
334,0.53,-1.36,1.21,0.18,-0.26,1.00
335,0.40,-1.11,1.16,0.17,-0.25,1.00
336,0.35,-1.54,1.45,0.18,-0.26,1.00
337,0.21,-1.82,1.13,0.18,-0.25,1.01
338,0.05,-1.18,1.44,0.18,-0.25,1.00
339,-0.20,-0.32,1.45,0.18,-0.25,1.01
340,-0.31,-0.73,1.19,0.18,-0.25,1.00
341,-0.18,-0.78,1.37,0.17,-0.25,1.01
342,-0.18,-0.37,1.53,0.18,-0.25,1.00
343,-0.27,-1.05,1.21,0.18,-0.25,1.01
344,-0.35,-1.33,1.05,0.18,-0.25,1.01
345,-0.26,-1.66,0.82,0.18,-0.25,1.01
346,-0.26,-1.88,0.72,0.17,-0.26,1.01
347,-0.11,-2.18,1.04,0.17,-0.26,1.02
348,0.09,-1.62,1.31,0.18,-0.26,1.02
349,0.38,-0.50,1.54,0.18,-0.26,1.02
350,0.58,1.01,1.97,0.18,-0.27,1.02
351,0.70,2.08,2.43,0.18,-0.27,1.02
352,0.73,1.68,2.31,0.17,-0.26,1.03
353,1.05,2.17,2.43,0.17,-0.25,1.01
354,1.01,2.24,2.47,0.18,-0.26,1.00
355,0.99,1.04,2.03,0.17,-0.26,1.00
356,1.10,0.34,1.94,0.18,-0.25,0.99
357,0.73,0.35,1.98,0.18,-0.25,0.99
358,0.58,0.21,2.11,0.17,-0.24,0.98
359,0.37,-0.23,2.00,0.18,-0.24,0.98
360,0.08,-0.63,1.92,0.17,-0.24,0.99
361,-0.02,-0.72,1.79,0.18,-0.24,0.98
362,-0.56,0.14,1.89,0.18,-0.25,0.99
363,-0.81,0.17,1.73,0.18,-0.24,0.99
364,-0.55,-0.05,1.74,0.19,-0.25,1.00
365,-0.38,-0.06,1.68,0.18,-0.25,1.00
366,-0.46,-0.17,1.39,0.19,-0.25,1.01
367,-0.47,-0.15,1.15,0.19,-0.25,1.01
368,-0.44,-0.50,0.70,0.19,-0.25,1.01
369,-0.52,-0.32,0.56,0.19,-0.25,1.02
370,-0.43,-0.35,0.46,0.19,-0.26,1.02
371,-0.64,-0.26,0.38,0.19,-0.26,1.02
372,-0.21,0.41,0.46,0.19,-0.26,1.02
373,-0.46,0.87,0.24,0.19,-0.26,1.02
374,-0.15,2.23,0.32,0.19,-0.27,1.04
375,0.02,3.34,0.78,0.18,-0.27,1.04
376,-0.03,3.57,1.33,0.18,-0.27,1.02
377,-0.11,3.08,1.36,0.18,-0.26,1.01
378,-0.37,2.44,1.18,0.18,-0.26,1.01
379,-0.76,2.87,0.76,0.17,-0.26,1.01
380,-0.79,2.85,0.99,0.16,-0.26,1.01
381,-0.73,2.38,1.07,0.16,-0.26,1.01
382,-0.61,1.69,0.75,0.16,-0.26,1.01
383,-0.63,1.95,1.25,0.16,-0.26,1.01
384,-0.50,1.91,1.65,0.16,-0.26,1.00
385,-0.44,2.64,1.76,0.16,-0.26,1.00
386,-0.47,2.95,2.00,0.16,-0.26,1.01
387,0.55,3.01,1.89,0.16,-0.26,1.01
388,2.75,5.82,3.13,0.17,-0.27,0.99
389,-0.84,0.52,2.40,0.16,-0.26,0.99
390,-0.98,0.63,2.47,0.16,-0.26,1.04
391,-0.56,1.36,2.27,0.17,-0.26,1.03
392,0.09,1.22,2.21,0.18,-0.26,1.03
393,0.69,2.24,2.31,0.18,-0.27,1.03
394,0.60,2.23,2.66,0.17,-0.27,1.02
395,0.61,1.80,2.58,0.15,-0.27,1.03
396,0.90,1.69,2.64,0.16,-0.27,1.03
397,0.63,1.31,2.44,0.16,-0.27,1.03
398,0.41,0.64,2.27,0.16,-0.26,1.03
399,0.81,-0.43,2.09,0.15,-0.26,1.03
400,0.96,-1.10,2.08,0.16,-0.27,1.02
401,0.78,-0.56,2.69,0.16,-0.26,1.03
402,0.55,0.21,3.08,0.17,-0.27,1.03
403,0.64,0.70,3.01,0.17,-0.27,1.03
404,0.27,0.47,3.34,0.16,-0.26,1.03
405,-0.92,2.37,3.63,0.17,-0.26,1.03
406,-0.08,2.09,4.12,0.17,-0.26,1.04
407,0.82,1.25,3.62,0.16,-0.26,1.04
408,1.53,0.09,3.37,0.16,-0.26,1.04
409,1.85,0.61,3.16,0.16,-0.26,1.04
410,1.85,1.56,3.54,0.15,-0.27,1.03
411,1.40,1.27,4.18,0.14,-0.27,1.02
412,1.37,0.35,4.89,0.13,-0.27,1.02
413,0.96,-0.24,5.04,0.14,-0.27,1.03
414,0.95,0.09,5.18,0.14,-0.27,1.03
415,1.18,0.96,5.37,0.14,-0.27,1.02
416,1.08,0.84,5.76,0.14,-0.28,1.02
417,1.07,0.55,6.14,0.12,-0.28,1.03
418,1.34,0.40,7.07,0.12,-0.28,1.03
419,1.42,0.93,7.66,0.11,-0.29,1.03
420,1.56,0.53,8.32,0.10,-0.29,1.03
421,1.22,-1.16,9.33,0.09,-0.29,1.02
422,1.19,-3.07,10.49,0.07,-0.30,1.01
423,1.28,-4.18,12.12,0.07,-0.30,1.04
424,1.48,-3.48,13.74,0.07,-0.31,1.03
425,2.14,-2.64,15.48,0.06,-0.32,1.02
426,2.43,-2.20,17.40,0.06,-0.32,1.04
427,2.43,-2.00,18.99,0.05,-0.33,1.03
428,2.32,-3.01,21.37,0.03,-0.33,1.04
429,2.31,-3.10,23.47,0.04,-0.33,1.03
430,1.25,-2.12,25.47,0.03,-0.34,1.02
431,0.37,-2.18,27.36,0.00,-0.34,1.01
432,0.72,-3.47,29.63,-0.03,-0.36,1.01
433,0.73,-3.83,33.05,-0.04,-0.36,1.01
434,0.40,-4.37,37.21,-0.08,-0.38,0.99
435,-0.23,-6.56,41.60,-0.11,-0.39,0.99
436,-0.08,-10.37,46.92,-0.15,-0.40,0.98
437,1.98,-14.84,53.02,-0.19,-0.42,0.99
438,4.00,-19.42,59.25,-0.21,-0.43,0.96
439,4.64,-24.34,65.27,-0.20,-0.43,0.96
440,6.70,-28.85,71.62,-0.21,-0.44,0.96
441,10.85,-33.37,77.24,-0.21,-0.45,0.97
442,13.57,-37.66,82.50,-0.21,-0.45,0.98
443,17.24,-36.31,89.82,-0.21,-0.47,0.95
444,20.27,-40.99,96.85,-0.26,-0.49,0.97
445,25.39,-49.56,103.79,-0.31,-0.54,0.99
446,30.73,-51.62,116.41,-0.30,-0.58,0.91
447,32.90,-65.74,124.58,-0.34,-0.58,0.96
448,34.02,-72.99,135.10,-0.36,-0.60,0.97
449,35.63,-70.92,147.31,-0.32,-0.63,0.96
450,39.77,-69.42,158.99,-0.32,-0.67,0.96
451,46.09,-71.65,169.08,-0.30,-0.70,0.97
452,51.95,-73.83,176.35,-0.24,-0.74,0.97
453,54.14,-70.87,184.14,-0.17,-0.75,0.94
454,55.44,-69.86,189.56,-0.15,-0.76,0.93
455,56.11,-70.85,195.89,-0.10,-0.76,0.91
456,55.10,-81.73,212.08,-0.12,-0.74,0.92
457,56.29,-78.46,197.77,-0.01,-0.80,0.90
458,58.03,-78.20,199.10,-0.07,-0.77,0.90
459,60.78,-74.87,202.32,-0.06,-0.78,0.88
460,59.48,-81.66,205.33,-0.09,-0.78,0.92
461,58.73,-82.21,210.56,-0.07,-0.82,0.89
462,64.02,-82.72,214.82,-0.06,-0.80,0.87
463,67.34,-88.79,214.37,-0.03,-0.77,0.84
464,66.21,-84.67,216.12,0.05,-0.73,0.79
465,63.80,-85.97,216.60,0.06,-0.72,0.80
466,64.05,-86.78,213.25,0.10,-0.70,0.81
467,65.15,-86.26,206.73,0.16,-0.68,0.79
468,62.20,-81.97,201.59,0.15,-0.65,0.76
469,58.37,-79.97,200.72,0.08,-0.63,0.74
470,55.33,-78.90,203.15,0.03,-0.62,0.72
471,49.18,-86.95,206.96,-0.05,-0.63,0.72
472,39.83,-95.22,215.18,-0.06,-0.62,0.75
473,35.34,-102.69,220.81,-0.02,-0.64,0.81
474,37.59,-109.04,222.82,0.02,-0.65,0.86
475,37.30,-109.79,223.74,0.16,-0.62,0.77
476,37.80,-141.88,213.94,0.06,-0.67,0.94
477,32.82,-94.98,222.84,0.29,-0.62,0.78
478,33.69,-73.21,224.85,0.23,-0.63,0.88
479,36.24,-63.68,222.53,0.26,-0.63,0.93
480,37.82,-61.94,221.65,0.21,-0.62,0.96
481,33.97,-65.36,223.74,0.21,-0.62,0.94
482,30.93,-69.01,226.75,0.24,-0.61,0.89
483,25.65,-67.57,229.65,0.33,-0.57,0.86
484,21.25,-63.59,230.06,0.41,-0.57,0.88
485,17.53,-53.27,229.79,0.53,-0.55,0.87
486,19.83,-53.54,225.62,0.53,-0.57,0.94
487,21.45,-57.07,221.05,0.53,-0.59,0.94
488,19.48,-63.69,217.13,0.54,-0.58,0.93
489,17.91,-67.28,214.29,0.57,-0.58,0.90
490,15.39,-67.86,212.23,0.63,-0.58,0.89
491,14.78,-60.47,209.68,0.69,-0.58,0.86
492,14.14,-49.88,208.12,0.72,-0.60,0.89
493,12.92,-42.56,208.09,0.70,-0.61,0.94
494,14.66,-36.47,206.18,0.72,-0.62,0.99
495,22.52,-35.65,198.38,0.72,-0.67,1.05
496,24.49,-30.27,194.31,0.69,-0.66,1.01
497,21.18,-32.96,193.94,0.59,-0.65,1.01
498,16.98,-33.85,196.95,0.56,-0.67,0.96
499,15.86,-36.46,198.55,0.58,-0.63,0.96
500,18.00,-27.66,195.65,0.67,-0.64,0.99
501,22.69,-36.08,192.75,0.59,-0.67,1.09
502,21.77,3.63,196.79,0.87,-0.61,0.88
503,19.50,52.35,205.11,0.84,-0.61,0.95
504,28.26,46.35,203.36,0.80,-0.78,1.09
505,34.44,0.23,192.90,0.65,-0.66,1.01
506,34.37,19.82,190.60,0.93,-0.66,0.92
507,30.95,36.18,194.24,0.83,-0.63,0.96
508,32.35,45.66,193.28,0.91,-0.69,0.94
509,30.31,78.78,195.22,0.94,-0.62,0.91
510,29.24,89.39,189.53,0.87,-0.64,1.05
511,30.90,100.43,184.72,0.83,-0.63,1.10
512,31.65,116.18,178.93,0.86,-0.58,1.02
513,31.65,122.61,174.00,0.77,-0.53,0.95
514,25.97,120.67,164.87,0.75,-0.51,0.96
515,25.94,121.88,158.69,0.68,-0.51,1.04
516,25.16,105.27,149.28,0.63,-0.48,1.04
517,34.66,100.09,143.69,0.72,-0.40,0.79
518,28.44,137.91,138.52,0.90,-0.38,0.76
519,31.45,102.99,127.10,0.51,-0.42,0.94
520,27.44,102.06,116.46,0.55,-0.40,0.90
521,23.98,114.73,116.29,0.43,-0.37,0.93
522,18.69,145.53,109.08,0.45,-0.41,0.98
523,11.95,133.25,101.77,0.38,-0.37,0.96
524,-14.75,9.19,66.56,0.05,-0.34,1.03
525,-18.38,-95.33,33.68,0.12,-0.35,0.88
526,-21.27,-139.47,16.61,0.34,-0.27,0.83
527,-18.29,-224.84,-7.31,0.14,-0.29,0.93
528,-5.24,-283.36,-20.50,0.21,-0.31,0.90
529,-0.84,-298.55,-12.85,0.32,-0.24,0.85
530,-17.15,-204.40,-9.48,0.67,-0.27,0.76
531,-23.95,-37.25,16.56,0.64,-0.41,0.85
532,-32.87,12.87,19.33,0.46,-0.46,1.16
533,-19.74,28.81,25.28,0.26,-0.41,1.11
534,-1.60,-41.24,4.64,0.22,-0.48,1.16
535,-5.36,-58.24,-1.31,0.31,-0.34,0.94
536,-15.54,-60.76,-3.66,0.25,-0.34,0.92
537,-16.35,-46.46,1.42,0.28,-0.32,0.85
538,-21.21,-39.98,-1.21,0.27,-0.30,0.91
539,-11.79,-9.65,3.07,0.37,-0.39,0.88
540,-15.74,6.34,-0.82,0.29,-0.35,1.03
541,-9.44,2.00,-1.73,0.20,-0.35,1.00
542,-7.24,13.22,-3.73,0.27,-0.38,0.99
543,-7.39,-1.80,-3.42,0.08,-0.34,0.95
544,-7.21,-42.76,-16.03,0.18,-0.33,0.92
545,-15.98,-32.92,-16.75,0.21,-0.31,0.91
546,-16.82,-12.76,-12.05,0.23,-0.36,0.92
547,-15.44,1.59,-7.21,0.18,-0.37,1.01
548,-9.40,-3.79,-7.98,0.14,-0.40,1.03
549,-2.64,-6.70,-7.86,0.15,-0.38,1.01
550,-3.50,-15.37,-10.66,0.15,-0.36,0.98
551,-6.95,-10.43,-11.34,0.20,-0.34,0.96
552,-8.58,6.70,-7.79,0.17,-0.35,0.95
553,-3.05,3.33,-8.73,0.11,-0.36,0.93
554,-0.03,16.63,-6.18,0.17,-0.35,0.90
555,-0.78,22.98,-5.80,0.15,-0.34,0.92
556,-0.87,23.94,-7.01,0.10,-0.35,0.94
557,0.00,20.93,-8.12,0.07,-0.35,0.94
558,0.87,-2.52,-13.95,0.01,-0.37,1.00
559,0.92,-1.40,-12.50,0.09,-0.36,0.95
560,-0.85,-5.83,-12.20,0.05,-0.36,1.00
561,1.71,-10.72,-12.96,0.08,-0.35,0.98
562,1.76,-0.82,-10.50,0.13,-0.36,1.00
563,1.89,5.34,-9.59,0.14,-0.37,1.00
564,2.73,10.98,-8.53,0.12,-0.36,1.00
565,3.82,19.25,-5.91,0.15,-0.36,0.97
566,3.63,18.37,-5.76,0.10,-0.37,0.98
567,3.36,20.35,-4.08,0.10,-0.35,1.00
568,3.01,17.16,-4.09,0.07,-0.36,1.02
569,3.05,14.95,-4.11,0.09,-0.36,1.01
570,3.56,12.43,-3.76,0.07,-0.36,1.00
571,3.62,10.06,-3.51,0.08,-0.35,1.00
572,4.37,10.67,-2.31,0.08,-0.35,0.99
573,5.45,10.67,-1.85,0.08,-0.34,1.00
574,3.86,11.51,-1.05,0.09,-0.33,0.98
575,3.66,16.78,1.15,0.09,-0.34,0.97
576,4.26,16.58,2.11,0.08,-0.34,0.97
577,3.82,15.50,2.56,0.09,-0.33,0.98
