,gyro_x,gyro_y,gyro_z,acce_x,acce_y,acce_z
0,-3.79,10.66,-24.84,0.06,-0.29,0.96
1,-2.76,12.64,-25.11,0.04,-0.31,0.97
2,9.36,14.46,-28.61,0.02,-0.35,0.97
3,-4.67,6.06,-25.07,-0.06,-0.20,1.05
4,-1.68,16.85,-21.57,0.04,-0.31,0.95
5,-1.88,22.67,-21.36,0.02,-0.32,0.97
6,-0.55,18.34,-23.44,-0.00,-0.34,0.99
7,0.82,16.72,-25.51,-0.00,-0.35,0.99
8,14.03,24.00,-28.08,0.03,-0.41,0.94
9,-1.95,15.47,-28.73,-0.05,-0.25,1.04
10,0.29,8.84,-29.56,-0.03,-0.38,1.01
11,1.19,5.10,-31.16,-0.01,-0.38,1.04
12,2.43,5.50,-32.27,0.00,-0.37,1.03
13,3.02,7.62,-34.06,0.03,-0.36,1.01
14,2.76,6.67,-36.84,0.04,-0.34,1.00
15,2.61,4.23,-40.50,0.06,-0.33,1.00
16,2.50,2.11,-44.69,0.07,-0.32,1.00
17,4.12,-0.17,-48.58,0.07,-0.33,1.01
18,7.01,-5.22,-53.02,0.08,-0.33,1.04
19,13.15,-8.05,-57.74,0.09,-0.32,1.03
20,14.53,-6.79,-61.94,0.11,-0.30,1.00
21,15.07,-12.17,-66.93,0.08,-0.30,1.00
22,15.98,-17.63,-70.84,0.08,-0.28,0.96
23,14.67,-17.16,-72.18,0.08,-0.28,0.93
24,17.25,-6.84,-71.15,0.11,-0.31,0.88
25,10.58,-4.11,-70.76,0.05,-0.28,0.93
26,19.50,3.76,-69.88,0.04,-0.38,0.89
27,11.62,7.66,-64.53,0.01,-0.29,0.95
28,16.93,22.05,-58.58,0.01,-0.35,0.92
29,16.85,25.15,-53.59,-0.03,-0.33,0.96
30,18.81,28.95,-49.15,-0.03,-0.35,0.96
31,20.24,30.82,-46.96,-0.02,-0.36,0.97
32,20.93,27.40,-47.19,-0.02,-0.35,0.99
33,22.17,25.71,-47.66,-0.00,-0.38,0.99
34,23.25,19.45,-51.01,0.02,-0.39,1.01
35,24.18,17.04,-54.75,0.04,-0.41,1.02
36,23.47,14.76,-58.05,0.04,-0.41,1.04
37,21.86,11.10,-59.98,0.02,-0.40,1.01
38,19.07,9.11,-59.92,0.01,-0.40,1.02
39,16.73,10.00,-58.21,0.02,-0.39,1.01
40,12.95,7.69,-57.07,0.02,-0.38,1.00
41,10.50,6.08,-56.18,0.03,-0.37,0.98
42,9.40,5.63,-54.69,0.02,-0.37,0.97
43,9.45,1.77,-52.81,0.01,-0.37,0.94
44,9.11,-0.61,-52.32,0.04,-0.36,0.93
45,7.77,-3.51,-53.13,0.06,-0.35,0.91
46,8.20,-5.40,-56.08,0.08,-0.36,0.89
47,7.27,-2.70,-58.17,0.08,-0.36,0.90
48,7.19,0.05,-59.77,0.07,-0.36,0.90
49,7.02,-1.95,-60.95,0.03,-0.37,0.90
50,6.41,-6.20,-61.63,0.01,-0.38,0.92
51,4.85,-9.59,-63.48,0.01,-0.39,0.93
52,3.97,-13.08,-65.21,0.01,-0.39,0.93
53,2.50,-16.87,-66.63,-0.00,-0.40,0.94
54,2.15,-18.49,-67.79,-0.01,-0.42,0.95
55,1.71,-19.82,-68.03,-0.04,-0.42,0.97
56,2.18,-20.38,-66.76,-0.07,-0.43,1.00
57,2.85,-20.89,-63.69,-0.11,-0.44,1.03
58,3.82,-21.01,-59.83,-0.12,-0.46,1.06
59,5.50,-21.15,-54.85,-0.14,-0.47,1.10
60,5.01,-20.20,-49.08,-0.15,-0.47,1.13
61,4.34,-18.23,-42.61,-0.15,-0.46,1.13
62,2.90,-16.63,-36.32,-0.16,-0.46,1.14
63,1.48,-18.72,-30.99,-0.16,-0.45,1.15
64,1.69,-21.51,-26.15,-0.17,-0.45,1.16
65,2.26,-25.40,-21.10,-0.16,-0.45,1.16
66,1.13,-27.94,-16.56,-0.13,-0.45,1.12
67,2.87,-31.28,-11.27,-0.13,-0.43,1.12
68,2.98,-35.94,-6.73,-0.11,-0.43,1.11
69,2.70,-38.05,-2.34,-0.07,-0.40,1.11
70,3.34,-38.15,0.89,-0.03,-0.39,1.09
71,4.14,-38.41,3.54,0.00,-0.38,1.10
72,5.36,-38.82,6.20,0.03,-0.36,1.08
73,6.06,-37.76,8.34,0.07,-0.35,1.06
74,6.67,-37.24,10.38,0.11,-0.34,1.04
75,6.53,-35.07,12.08,0.15,-0.33,1.02
76,6.27,-32.46,13.15,0.19,-0.32,1.00
77,5.63,-30.99,12.84,0.22,-0.30,0.98
78,4.44,-27.59,12.11,0.26,-0.29,0.96
79,3.54,-25.54,10.95,0.25,-0.27,0.96
80,3.31,-24.21,10.06,0.27,-0.27,0.95
81,2.46,-22.63,8.72,0.29,-0.25,0.94
82,0.43,-20.20,6.18,0.30,-0.25,0.94
83,-0.06,-16.90,4.61,0.30,-0.24,0.94
84,-0.99,-13.13,3.22,0.30,-0.24,0.95
85,-1.85,-9.77,2.31,0.29,-0.24,0.94
86,-2.26,-7.24,1.07,0.28,-0.25,0.95
87,-3.05,-3.36,0.90,0.27,-0.25,0.95
88,-3.13,1.85,0.60,0.26,-0.25,0.95
89,-3.86,3.77,0.02,0.23,-0.25,0.96
90,-4.46,3.85,-0.53,0.21,-0.26,0.96
91,-4.93,4.69,-0.75,0.20,-0.27,0.95
92,-4.09,5.51,-0.67,0.18,-0.27,0.95
93,-3.27,7.69,-0.17,0.18,-0.27,0.95
94,-3.37,8.31,0.15,0.16,-0.28,0.96
95,-3.21,8.47,0.56,0.15,-0.29,0.95
96,-2.52,6.64,1.42,0.12,-0.29,0.95
97,-2.35,6.81,2.37,0.13,-0.29,0.96
98,-1.62,8.26,2.92,0.14,-0.30,0.96
99,-0.60,8.52,3.59,0.13,-0.30,0.97
100,-0.29,6.75,3.89,0.12,-0.30,0.98
101,-1.05,5.33,4.52,0.11,-0.30,0.98
102,-1.15,5.19,5.31,0.11,-0.30,0.96
103,-0.63,5.33,6.00,0.12,-0.31,0.98
104,-0.53,5.62,6.67,0.12,-0.31,0.99
105,0.03,5.91,6.93,0.12,-0.31,0.99
106,0.60,6.20,7.36,0.12,-0.31,0.99
107,1.04,5.68,7.48,0.12,-0.30,1.00
108,1.60,5.39,8.49,0.12,-0.31,1.00
109,2.09,6.58,9.40,0.14,-0.31,1.00
110,2.72,8.44,10.00,0.15,-0.30,1.00
111,3.15,10.26,10.24,0.16,-0.31,1.01
112,3.45,13.02,10.31,0.17,-0.30,0.99
113,3.34,13.86,10.81,0.16,-0.29,0.98
114,3.22,14.06,11.07,0.16,-0.29,0.98
115,3.02,14.60,11.02,0.16,-0.29,0.98
116,2.92,14.47,10.63,0.16,-0.29,0.97
117,2.75,15.44,9.85,0.17,-0.28,0.98
118,2.52,15.53,8.81,0.16,-0.28,0.97
119,2.35,15.37,8.26,0.16,-0.28,0.97
120,1.94,14.05,7.56,0.16,-0.29,0.98
121,1.59,13.13,6.79,0.14,-0.29,0.97
122,1.54,12.00,6.55,0.14,-0.29,0.98
123,1.54,10.95,6.02,0.13,-0.31,1.00
124,1.16,10.64,5.76,0.13,-0.30,1.01
125,1.48,10.35,5.59,0.13,-0.30,1.01
126,1.76,9.21,4.85,0.12,-0.31,1.02
127,1.65,8.85,4.34,0.12,-0.31,1.03
128,1.59,9.31,4.41,0.11,-0.31,1.03
129,1.22,8.37,4.40,0.10,-0.31,1.03
130,1.22,7.82,4.82,0.09,-0.31,1.02
131,1.05,6.24,5.21,0.08,-0.32,1.03
132,0.90,5.30,5.54,0.10,-0.32,1.03
133,0.60,5.69,5.59,0.11,-0.32,1.04
134,0.84,6.02,5.54,0.10,-0.32,1.05
135,1.02,5.31,5.45,0.11,-0.32,1.04
136,0.92,4.50,5.24,0.10,-0.32,1.03
137,0.87,2.43,4.53,0.09,-0.32,1.04
138,0.98,0.44,4.11,0.09,-0.32,1.04
139,1.18,-1.59,3.59,0.10,-0.31,1.03
140,1.22,-2.29,3.76,0.10,-0.32,1.04
141,1.24,-3.50,3.40,0.10,-0.31,1.04
142,0.87,-5.08,3.13,0.09,-0.31,1.03
143,0.95,-5.37,3.50,0.10,-0.31,1.03
144,0.78,-6.31,3.47,0.11,-0.31,1.01
145,0.64,-6.47,3.19,0.12,-0.31,1.02
146,0.70,-6.41,2.64,0.13,-0.30,1.01
147,0.60,-7.02,1.85,0.13,-0.30,1.00
148,0.05,-7.42,1.63,0.13,-0.30,0.99
149,-0.58,-8.82,1.34,0.12,-0.30,0.98
150,-1.28,-10.06,1.07,0.13,-0.29,0.98
151,-1.83,-10.60,0.87,0.13,-0.29,0.98
152,-2.40,-11.48,0.34,0.14,-0.30,0.99
153,-2.84,-11.47,0.02,0.15,-0.30,0.99
154,-2.89,-10.98,-0.49,0.15,-0.30,1.01
155,-2.63,-10.53,-1.25,0.16,-0.31,1.02
156,-2.67,-10.27,-1.69,0.16,-0.31,1.01
157,-2.40,-9.39,-2.27,0.15,-0.31,1.02
158,-2.50,-9.08,-2.81,0.14,-0.31,1.02
159,-2.82,-8.41,-3.33,0.14,-0.30,1.02
160,-2.69,-9.07,-3.83,0.13,-0.31,1.00
161,-2.79,-9.21,-4.09,0.14,-0.31,1.01
162,-2.78,-9.28,-4.17,0.13,-0.31,1.01
163,-2.90,-10.05,-4.21,0.13,-0.32,1.01
164,-3.01,-9.25,-3.77,0.13,-0.32,1.01
165,-2.27,-9.30,-3.80,0.14,-0.32,1.02
166,-1.82,-8.49,-3.73,0.13,-0.31,1.03
167,-1.65,-7.34,-3.37,0.13,-0.31,1.01
168,-1.48,-6.05,-2.98,0.13,-0.31,1.00
169,-1.54,-6.11,-2.81,0.13,-0.31,1.00
170,-1.91,-5.66,-2.75,0.13,-0.31,1.00
171,-1.98,-4.92,-2.49,0.13,-0.31,1.01
172,-1.65,-4.84,-2.23,0.13,-0.32,1.01
173,-1.94,-4.46,-1.73,0.12,-0.31,1.00
174,-1.45,-4.52,-1.13,0.13,-0.32,1.00
175,-1.68,-4.11,-0.72,0.13,-0.31,1.01
176,-1.33,-3.59,-0.66,0.15,-0.32,1.00
177,-0.67,-3.30,-0.84,0.15,-0.31,1.02
178,-0.49,-2.66,-0.81,0.15,-0.32,1.02
179,-0.20,-1.59,-0.60,0.15,-0.31,1.02
180,-0.09,-0.38,-0.06,0.14,-0.32,1.01
181,-0.15,0.63,0.50,0.15,-0.31,1.02
182,-0.11,2.15,0.58,0.15,-0.32,1.01
183,0.05,3.21,0.55,0.15,-0.32,1.01
184,0.26,4.23,0.96,0.15,-0.31,1.01
185,0.41,4.21,0.95,0.14,-0.31,1.01
186,0.55,4.06,0.84,0.14,-0.31,1.01
187,0.79,4.15,0.63,0.15,-0.31,1.00
188,0.63,4.73,0.43,0.14,-0.31,1.00
189,0.64,5.16,0.29,0.13,-0.31,0.99
190,0.41,5.80,0.58,0.13,-0.30,1.00
191,0.21,5.97,0.63,0.13,-0.31,0.99
192,-0.12,5.59,0.87,0.13,-0.30,1.01
193,-0.34,6.55,0.70,0.14,-0.31,1.00
194,-0.06,7.30,0.84,0.14,-0.32,1.01
195,0.08,7.65,1.04,0.14,-0.32,1.01
196,0.90,8.06,1.01,0.13,-0.31,1.02
197,1.08,8.29,0.92,0.13,-0.31,1.02
198,1.51,8.46,1.05,0.13,-0.31,1.03
199,1.63,8.56,0.78,0.12,-0.32,1.01
200,1.56,7.15,0.49,0.12,-0.32,1.02
201,1.83,6.75,0.70,0.12,-0.32,1.03
202,1.68,6.64,1.01,0.11,-0.32,1.02
203,1.69,6.66,1.47,0.12,-0.31,1.02
204,1.77,6.78,1.66,0.11,-0.33,1.01
205,1.63,6.50,1.56,0.11,-0.31,1.01
206,2.02,6.96,1.85,0.12,-0.32,1.02
207,2.35,6.63,1.83,0.11,-0.32,1.02
208,2.11,6.09,2.05,0.11,-0.31,1.02
209,2.08,7.62,2.58,0.12,-0.32,1.01
210,2.11,8.73,2.52,0.12,-0.31,1.02
211,1.95,8.55,2.61,0.12,-0.31,1.01
212,1.86,8.79,2.43,0.11,-0.31,1.01
213,1.66,8.38,2.21,0.11,-0.30,1.01
214,0.92,7.68,2.06,0.10,-0.31,1.00
215,0.93,6.89,2.15,0.11,-0.31,1.00
216,0.87,5.59,1.60,0.10,-0.31,0.99
217,0.81,4.84,1.40,0.10,-0.31,1.01
218,0.90,3.16,1.36,0.09,-0.31,1.01
219,1.01,2.35,1.11,0.09,-0.31,1.01
220,1.28,3.40,1.60,0.10,-0.31,1.02
221,1.85,3.83,1.48,0.09,-0.31,1.01
222,1.60,3.69,2.05,0.10,-0.31,1.00
223,1.08,3.13,2.27,0.09,-0.30,1.01
224,0.70,2.31,2.60,0.09,-0.30,1.00
225,0.15,0.69,2.61,0.10,-0.31,1.00
226,0.31,0.03,2.47,0.10,-0.31,1.01
227,0.29,0.03,2.29,0.10,-0.30,1.01
228,0.20,-0.67,1.94,0.11,-0.31,1.00
229,0.49,0.03,1.94,0.11,-0.31,1.01
230,0.82,0.72,1.91,0.11,-0.30,1.00
231,0.43,0.46,1.71,0.11,-0.30,1.00
232,-0.03,0.14,1.57,0.12,-0.30,1.00
233,-0.47,-1.60,0.79,0.11,-0.29,1.00
234,-0.81,-3.47,0.14,0.11,-0.30,1.00
235,-0.93,-3.31,0.06,0.12,-0.30,1.00
236,-1.24,-3.34,0.20,0.11,-0.30,1.01
237,-1.18,-4.20,-0.06,0.11,-0.30,1.01
238,-0.98,-4.60,-0.23,0.12,-0.31,1.02
239,-0.92,-4.66,-0.20,0.11,-0.31,1.02
240,-0.79,-5.25,-0.02,0.11,-0.31,1.03
241,-0.52,-5.62,-0.05,0.11,-0.31,1.04
242,-0.08,-5.02,0.17,0.11,-0.32,1.04
243,0.14,-4.69,0.27,0.12,-0.31,1.02
244,0.38,-4.12,0.24,0.12,-0.31,1.03
245,0.95,-4.92,0.47,0.10,-0.31,1.02
246,0.99,-4.55,0.43,0.12,-0.31,1.01
247,0.47,-4.47,0.46,0.11,-0.32,1.01
248,0.64,-5.16,0.24,0.11,-0.31,0.99
249,0.50,-6.34,0.14,0.11,-0.31,1.00
250,0.55,-6.37,0.41,0.11,-0.30,1.00
251,0.64,-5.80,0.50,0.12,-0.31,0.98
252,0.43,-5.65,0.79,0.12,-0.30,0.98
253,0.67,-5.33,0.78,0.12,-0.30,0.98
254,0.56,-4.75,1.11,0.12,-0.30,0.99
255,0.26,-5.48,1.02,0.12,-0.30,1.00
256,0.06,-6.06,0.87,0.12,-0.30,0.98
257,-0.44,-6.49,0.98,0.12,-0.29,0.98
258,-0.79,-7.01,0.84,0.13,-0.30,0.98
259,-0.78,-7.69,0.53,0.13,-0.31,0.99
260,-0.90,-8.20,0.09,0.14,-0.30,1.00
261,-0.84,-8.38,-0.02,0.14,-0.31,1.00
262,-0.82,-7.19,0.20,0.14,-0.31,1.01
263,-0.56,-6.27,0.72,0.14,-0.31,1.01
264,-0.18,-4.79,0.99,0.15,-0.32,1.02
265,0.20,-2.87,1.01,0.15,-0.31,1.02
266,0.31,-1.02,0.95,0.15,-0.31,1.02
267,0.53,0.15,0.70,0.15,-0.31,1.03
268,0.47,0.32,0.66,0.14,-0.31,1.01
269,0.52,0.69,0.90,0.13,-0.30,1.02
270,0.31,0.78,1.31,0.13,-0.31,1.01
271,0.12,0.76,1.47,0.13,-0.30,1.00
272,-0.18,1.30,1.50,0.14,-0.30,1.00
273,-0.24,1.94,1.56,0.14,-0.30,1.00
274,0.17,2.55,1.66,0.13,-0.30,0.99
275,-0.06,2.24,1.92,0.12,-0.30,0.99
276,-0.38,2.72,2.29,0.13,-0.30,1.00
277,-0.70,2.70,2.31,0.13,-0.30,0.99
278,-0.79,2.87,2.23,0.13,-0.30,1.00
279,-0.90,3.25,2.06,0.13,-0.31,1.00
280,-0.75,2.87,1.71,0.13,-0.31,1.00
281,-0.53,3.08,1.42,0.12,-0.31,1.01
282,-0.56,2.82,1.50,0.12,-0.30,1.02
283,-0.26,2.90,1.40,0.12,-0.31,1.01
284,-0.06,3.28,1.92,0.12,-0.31,1.02
285,-0.08,2.41,2.11,0.11,-0.32,1.01
286,0.12,2.70,2.43,0.12,-0.32,1.02
287,0.75,3.47,2.79,0.12,-0.32,1.02
288,0.98,3.89,2.92,0.13,-0.32,1.02
289,1.30,5.08,3.25,0.12,-0.31,1.01
290,1.31,5.88,3.37,0.12,-0.31,1.00
291,1.31,6.41,3.73,0.12,-0.31,1.01
292,1.44,6.43,4.12,0.11,-0.31,1.00
293,1.07,5.54,4.08,0.11,-0.31,1.00
294,1.10,5.01,4.15,0.11,-0.30,1.01
295,1.15,4.27,3.85,0.11,-0.31,1.00
296,1.04,3.85,3.74,0.12,-0.30,0.99
297,1.18,3.97,3.92,0.12,-0.30,1.00
298,1.39,3.42,3.98,0.13,-0.31,1.00
299,1.57,3.21,3.76,0.12,-0.30,1.00
300,1.47,3.08,3.59,0.13,-0.31,1.00
301,1.22,2.78,3.56,0.13,-0.31,1.00
302,1.13,2.72,3.27,0.13,-0.31,1.01
303,1.13,2.66,3.04,0.14,-0.31,1.01
304,0.89,2.93,2.82,0.15,-0.30,1.00
305,0.95,3.30,2.78,0.14,-0.30,1.00
306,1.10,3.83,2.73,0.13,-0.30,1.00
307,0.95,4.95,2.95,0.14,-0.30,1.00
308,0.76,5.83,2.63,0.14,-0.31,1.01
309,0.81,5.69,2.11,0.14,-0.30,1.00
310,0.21,4.52,1.45,0.14,-0.30,1.00
311,0.21,3.85,1.27,0.12,-0.30,1.00
312,-0.14,3.44,1.18,0.12,-0.30,1.00
313,-0.43,2.49,1.01,0.12,-0.30,1.01
314,-0.38,1.95,0.72,0.12,-0.31,1.00
315,-0.47,1.53,0.41,0.12,-0.31,1.01
316,-0.60,1.30,0.47,0.12,-0.30,1.01
317,-0.52,1.34,0.37,0.12,-0.31,1.02
318,-0.17,1.45,0.53,0.11,-0.31,1.03
319,0.20,1.47,0.66,0.12,-0.32,1.03
320,0.31,2.14,0.78,0.11,-0.31,1.02
321,0.53,2.31,1.02,0.10,-0.31,1.03
322,0.72,2.58,1.13,0.10,-0.32,1.02
323,1.07,2.29,1.66,0.10,-0.32,1.03
324,1.40,2.12,2.12,0.08,-0.31,1.02
325,1.92,1.56,2.11,0.09,-0.32,1.02
326,2.02,0.72,2.52,0.09,-0.31,1.02
327,2.35,0.79,2.82,0.10,-0.31,1.02
328,2.32,1.16,2.84,0.11,-0.30,1.02
329,2.43,1.19,2.92,0.11,-0.31,1.02
330,2.53,0.93,2.70,0.11,-0.31,1.01
331,2.55,0.40,2.52,0.12,-0.31,1.01
332,2.53,-0.06,2.03,0.12,-0.30,1.01
333,2.32,-0.44,1.54,0.12,-0.30,1.02
334,2.23,-0.52,1.18,0.11,-0.30,1.00
335,2.12,-1.16,0.99,0.11,-0.30,0.99
336,1.42,-1.77,0.99,0.10,-0.30,0.99
337,1.05,-3.04,0.43,0.10,-0.31,1.00
338,1.40,-0.85,0.70,0.11,-0.29,0.98
339,1.10,-1.30,0.67,0.09,-0.30,0.97
340,0.56,-4.41,-0.05,0.08,-0.31,1.00
341,0.31,-4.47,0.70,0.09,-0.31,0.99
342,0.06,-3.30,1.01,0.09,-0.30,1.00
343,-0.05,-2.75,1.62,0.10,-0.31,1.00
344,-0.09,-3.07,1.48,0.09,-0.30,1.01
345,-0.02,-2.89,1.79,0.09,-0.30,1.00
346,-0.14,-2.99,2.35,0.10,-0.30,1.01
347,-0.20,-3.47,2.35,0.09,-0.30,1.01
348,-0.17,-4.89,2.49,0.11,-0.30,1.00
349,-0.12,-4.95,2.32,0.11,-0.30,1.01
350,-0.11,-4.41,2.26,0.12,-0.30,1.01
351,0.02,-4.41,2.49,0.12,-0.31,1.01
352,-0.05,-4.14,2.12,0.12,-0.30,1.00
353,-0.14,-3.10,2.40,0.13,-0.30,1.00
354,0.08,-2.02,2.52,0.13,-0.31,1.02
355,0.00,-1.91,2.18,0.13,-0.30,1.02
356,0.18,-2.00,2.20,0.12,-0.31,1.01
357,0.17,-1.63,2.53,0.12,-0.32,1.01
358,0.40,-1.10,2.76,0.12,-0.31,1.01
359,0.76,-0.60,2.82,0.13,-0.31,1.01
360,1.36,-0.23,2.85,0.13,-0.31,1.01
361,1.51,0.20,2.49,0.13,-0.30,1.00
362,1.28,0.64,2.50,0.13,-0.31,1.00
363,1.08,0.23,2.75,0.13,-0.30,1.00
364,0.78,0.27,2.75,0.13,-0.30,1.00
365,0.81,0.87,2.40,0.13,-0.30,0.99
366,0.81,1.76,2.29,0.13,-0.30,0.99
367,0.90,2.02,2.27,0.13,-0.30,1.01
368,0.92,2.29,2.11,0.14,-0.30,0.99
369,1.07,2.53,1.94,0.13,-0.31,0.99
370,1.13,2.32,1.39,0.14,-0.30,1.00
371,1.25,1.98,0.99,0.13,-0.30,1.00
372,1.34,2.31,0.95,0.14,-0.30,1.00
373,0.96,2.34,0.82,0.14,-0.31,0.99
374,0.99,2.52,0.52,0.13,-0.30,1.00
375,0.89,2.75,0.63,0.13,-0.31,1.01
376,1.15,2.29,0.44,0.13,-0.31,1.01
377,1.10,2.95,0.95,0.13,-0.31,1.01
378,1.05,4.24,0.95,0.13,-0.30,1.01
379,0.78,4.24,0.75,0.13,-0.31,1.01
380,0.69,4.93,0.69,0.13,-0.31,1.01
381,0.66,4.66,0.52,0.11,-0.31,1.01
382,0.46,4.76,0.52,0.11,-0.31,1.02
383,0.31,4.93,0.87,0.11,-0.31,1.01
384,0.12,5.02,1.31,0.12,-0.30,1.01
385,0.24,4.44,1.22,0.10,-0.31,1.01
386,0.17,3.28,1.13,0.11,-0.31,1.01
387,0.24,3.34,1.15,0.11,-0.31,1.00
388,0.11,3.47,1.54,0.11,-0.31,1.01
389,0.44,2.56,1.47,0.11,-0.30,1.02
390,0.18,1.47,1.40,0.11,-0.31,1.01
391,0.12,1.76,1.44,0.12,-0.31,1.01
392,0.23,1.73,1.05,0.13,-0.31,1.02
393,0.14,1.76,0.72,0.12,-0.30,1.02
394,0.08,1.54,0.58,0.11,-0.30,1.01
395,0.37,0.87,0.32,0.11,-0.31,1.02
396,0.76,0.72,0.81,0.10,-0.30,1.02
397,0.55,1.40,1.07,0.11,-0.30,1.03
398,0.53,2.50,1.07,0.12,-0.30,1.02
399,0.46,2.79,0.81,0.12,-0.31,1.02
400,0.27,2.73,0.66,0.12,-0.30,1.01
401,0.17,2.26,0.24,0.11,-0.30,1.01
402,0.21,1.79,0.38,0.10,-0.31,1.00
403,0.12,0.79,0.58,0.10,-0.30,1.00
404,-0.34,-0.03,0.63,0.10,-0.30,1.00
405,-0.18,-0.32,0.56,0.11,-0.31,1.00
406,-0.27,-0.60,0.34,0.12,-0.30,1.01
407,-0.09,-0.23,0.44,0.12,-0.30,1.01
408,-0.32,-0.40,-0.11,0.13,-0.31,1.01
409,-0.40,-0.31,-0.24,0.12,-0.30,1.01
410,-0.44,-0.21,-0.60,0.12,-0.31,1.01
411,-0.76,-0.31,-0.43,0.11,-0.31,1.03
412,-0.38,-0.67,-0.46,0.11,-0.30,1.02
413,-0.20,-0.40,-0.52,0.11,-0.30,1.02
414,0.06,-0.11,-0.46,0.11,-0.30,1.02
415,0.09,-0.15,-0.56,0.11,-0.31,1.02
416,0.58,-0.15,-0.66,0.11,-0.30,1.02
417,0.49,-0.44,-1.08,0.11,-0.30,1.02
418,0.40,-1.33,-1.27,0.11,-0.30,1.02
419,0.31,-1.98,-1.24,0.10,-0.30,1.00
420,-0.02,-2.03,-1.51,0.10,-0.30,1.00
421,0.08,-1.63,-1.76,0.11,-0.30,1.01
422,0.12,-1.51,-1.94,0.11,-0.30,1.01
423,0.11,-1.07,-1.97,0.11,-0.29,1.02
424,0.05,-1.25,-1.80,0.10,-0.30,1.01
425,-0.26,-1.71,-1.50,0.09,-0.31,1.01
426,-0.55,-2.69,-1.47,0.09,-0.30,1.01
427,-0.63,-2.99,-1.47,0.09,-0.30,1.01
428,-0.52,-3.34,-1.42,0.10,-0.31,1.01
429,-0.41,-3.71,-0.99,0.08,-0.31,1.02
430,-0.15,-3.91,-0.90,0.09,-0.31,1.02
431,0.05,-4.05,-0.66,0.09,-0.31,1.02
432,0.38,-3.94,0.17,0.08,-0.31,1.02
433,0.50,-3.68,0.89,0.09,-0.32,1.02
434,0.26,-4.08,1.04,0.09,-0.31,1.01
435,0.35,-4.34,0.87,0.10,-0.30,1.01
436,0.34,-4.20,0.90,0.10,-0.30,1.01
437,0.24,-4.08,1.34,0.10,-0.31,1.00
438,0.09,-4.15,1.33,0.12,-0.31,1.01
439,0.02,-4.20,1.18,0.12,-0.29,1.00
440,0.14,-3.39,1.01,0.12,-0.30,1.00
441,0.06,-2.72,0.98,0.13,-0.30,1.00
442,0.06,-2.89,0.58,0.13,-0.30,1.01
443,-0.12,-3.50,0.50,0.12,-0.30,1.00
444,0.05,-3.30,0.34,0.12,-0.30,1.00
445,-0.20,-3.59,0.38,0.13,-0.31,1.01
446,-0.12,-3.71,0.29,0.12,-0.30,1.01
447,-0.15,-2.81,0.50,0.13,-0.31,1.02
448,-0.35,-1.89,0.47,0.13,-0.31,1.01
449,-0.11,-0.92,0.89,0.13,-0.30,1.01
450,0.02,-0.11,0.70,0.13,-0.31,1.02
451,-0.02,0.55,0.69,0.13,-0.31,1.00
452,0.24,1.10,0.21,0.13,-0.31,1.01
453,0.08,1.22,0.47,0.12,-0.31,1.01
454,0.00,1.19,0.67,0.12,-0.30,1.01
455,-0.02,1.19,0.52,0.12,-0.30,1.01
456,-0.31,0.85,0.60,0.11,-0.30,1.01
457,-0.18,-0.27,0.40,0.11,-0.30,1.01
458,-0.18,-0.90,0.47,0.10,-0.31,1.02
459,0.12,-1.28,0.78,0.11,-0.31,1.02
460,0.32,-0.53,1.07,0.12,-0.32,1.03
461,0.53,0.26,1.47,0.12,-0.32,1.05
462,0.99,1.47,1.57,0.13,-0.32,1.04
463,1.56,2.43,1.50,0.13,-0.31,1.04
464,1.65,3.54,1.71,0.12,-0.31,1.03
465,1.71,3.24,1.60,0.12,-0.31,1.04
466,1.82,3.50,1.40,0.12,-0.31,1.03
467,1.73,3.73,1.54,0.11,-0.30,1.02
468,1.74,3.76,1.77,0.11,-0.31,1.02
469,2.18,3.79,1.86,0.10,-0.30,1.02
470,2.41,3.01,1.98,0.10,-0.30,1.00
471,2.66,2.66,2.23,0.10,-0.31,1.01
472,2.32,2.69,2.47,0.10,-0.30,1.00
473,2.11,1.82,2.90,0.09,-0.30,1.00
474,2.00,1.01,3.07,0.10,-0.31,0.99
475,1.51,0.84,3.37,0.11,-0.31,0.99
476,1.27,0.53,3.53,0.11,-0.30,0.99
477,1.39,0.18,3.34,0.12,-0.30,1.00
478,1.59,-0.02,3.21,0.12,-0.29,1.00
479,1.83,0.27,2.82,0.13,-0.30,1.00
480,1.94,0.53,2.81,0.14,-0.30,0.99
481,1.97,0.78,2.49,0.14,-0.30,1.01
482,1.51,1.16,2.12,0.14,-0.30,1.01
483,1.44,1.54,1.71,0.14,-0.29,1.01
484,1.28,1.54,1.47,0.13,-0.29,1.00
485,0.90,1.22,1.07,0.14,-0.30,0.99
486,0.38,0.98,0.81,0.13,-0.29,0.98
487,0.18,0.58,0.46,0.13,-0.29,0.99
488,-0.18,-0.03,-0.14,0.13,-0.30,0.98
489,-0.18,-0.23,-0.02,0.13,-0.30,0.99
490,-0.24,-0.11,-0.14,0.12,-0.30,1.00
491,-0.49,-0.40,-0.03,0.12,-0.31,1.02
492,-0.03,0.18,0.15,0.13,-0.30,1.01
493,0.02,1.11,0.17,0.13,-0.30,1.01
494,0.09,1.85,0.52,0.12,-0.31,1.02
495,0.09,1.50,0.44,0.11,-0.30,1.02
496,-0.09,0.78,0.38,0.12,-0.30,1.01
497,-0.18,0.12,0.46,0.11,-0.31,1.02
498,-0.06,-0.95,-0.05,0.12,-0.31,1.01
499,0.09,-1.51,-0.12,0.11,-0.30,1.01
500,0.32,-1.80,-0.03,0.11,-0.30,1.01
501,0.63,-1.44,0.00,0.11,-0.30,1.01
502,0.58,-1.45,0.08,0.11,-0.30,1.01
503,0.40,-1.27,0.14,0.12,-0.30,1.00
504,0.31,-0.93,0.05,0.11,-0.30,1.00
505,0.02,-1.05,0.09,0.11,-0.30,1.01
506,0.03,-1.13,0.12,0.10,-0.31,1.01
507,0.03,-0.79,0.50,0.11,-0.31,1.01
508,0.37,-0.46,0.72,0.11,-0.30,1.00
509,0.47,-1.04,1.01,0.10,-0.31,1.01
510,0.49,-1.05,0.84,0.11,-0.30,1.01
511,0.21,-0.98,0.46,0.11,-0.30,1.00
512,0.06,-1.97,0.20,0.10,-0.30,1.00
513,-0.03,-3.53,0.09,0.09,-0.31,1.01
514,-0.52,-4.43,0.37,0.10,-0.30,1.00
515,-0.47,-4.55,1.10,0.10,-0.30,1.01
516,-0.41,-4.44,1.60,0.10,-0.31,1.02
517,-0.38,-4.17,1.94,0.11,-0.31,1.02
518,-0.27,-3.60,2.26,0.11,-0.30,1.03
519,-0.08,-3.91,2.47,0.11,-0.32,1.02
520,-0.14,-3.80,2.60,0.12,-0.32,1.04
521,0.21,-3.69,2.38,0.12,-0.31,1.04
522,0.31,-3.65,2.35,0.11,-0.31,1.02
523,0.67,-2.98,2.49,0.11,-0.31,1.04
524,1.13,-2.49,3.08,0.09,-0.31,1.03
525,1.45,-2.52,3.80,0.09,-0.32,1.03
526,1.34,-2.38,4.67,0.09,-0.31,1.02
527,1.21,-2.21,5.65,0.10,-0.30,1.02
528,1.53,-1.83,6.31,0.10,-0.30,1.02
529,1.53,-1.62,6.61,0.11,-0.30,1.01
530,1.30,-1.22,6.96,0.11,-0.31,1.01
531,1.42,-1.01,6.87,0.11,-0.31,1.01
532,1.60,-0.96,7.25,0.10,-0.31,1.02
533,1.24,0.15,7.74,0.10,-0.32,1.01
534,1.07,-0.03,8.27,0.08,-0.32,1.01
535,1.60,-1.54,8.46,0.06,-0.33,1.03
536,2.32,-3.63,8.76,0.04,-0.33,1.03
537,2.81,-5.47,9.53,0.02,-0.34,1.02
538,3.11,-8.58,10.89,-0.02,-0.36,1.03
539,3.18,-10.23,12.78,-0.03,-0.38,1.04
540,3.15,-10.02,14.67,-0.07,-0.39,1.04
541,2.64,-8.20,18.26,-0.11,-0.41,1.06
542,3.16,-7.88,22.92,-0.19,-0.43,1.10
543,3.97,-9.65,29.56,-0.28,-0.48,1.15
544,6.43,-10.70,39.42,-0.32,-0.48,1.17
545,8.93,-7.11,48.55,-0.32,-0.49,1.16
546,10.21,-6.72,55.30,-0.33,-0.51,1.17
547,11.95,-7.69,61.30,-0.33,-0.52,1.18
548,15.15,-9.16,66.89,-0.34,-0.53,1.19
549,19.13,-13.39,71.22,-0.35,-0.56,1.16
550,23.69,-20.18,73.91,-0.37,-0.57,1.15
551,28.72,-27.89,76.18,-0.40,-0.59,1.13
552,33.19,-36.64,80.27,-0.43,-0.62,1.10
553,37.18,-44.23,85.50,-0.47,-0.63,1.07
554,40.99,-52.00,91.10,-0.48,-0.65,1.03
555,44.63,-58.31,99.30,-0.49,-0.66,0.98
556,46.87,-62.52,106.64,-0.50,-0.69,0.94
557,47.48,-67.98,115.73,-0.49,-0.70,0.88
558,47.66,-74.93,123.91,-0.48,-0.70,0.84
559,48.72,-81.79,131.33,-0.45,-0.70,0.81
560,48.93,-87.16,138.18,-0.41,-0.70,0.78
561,48.90,-93.62,144.76,-0.40,-0.71,0.76
562,49.54,-99.79,150.12,-0.39,-0.71,0.73
563,49.80,-107.25,154.15,-0.35,-0.72,0.73
564,50.27,-108.15,159.25,-0.31,-0.76,0.70
565,49.92,-110.35,164.35,-0.33,-0.78,0.71
566,50.60,-111.48,169.42,-0.29,-0.82,0.70
567,50.58,-114.46,173.71,-0.29,-0.86,0.70
568,51.31,-105.53,180.84,-0.25,-0.90,0.70
569,50.76,-109.97,187.97,-0.32,-0.95,0.73
570,49.10,-127.50,197.15,-0.38,-0.98,0.71
571,43.16,-115.62,212.20,-0.27,-0.99,0.62
572,36.96,-129.30,225.47,-0.33,-1.01,0.67
573,31.31,-133.28,234.58,-0.17,-0.97,0.62
574,21.02,-128.95,238.60,-0.03,-0.89,0.61
575,28.15,-136.49,241.94,-0.07,-1.01,0.73
576,29.59,-135.28,244.89,0.09,-0.96,0.64
577,29.47,-123.11,245.34,0.11,-0.96,0.65
578,30.82,-115.66,242.52,0.16,-0.95,0.67
579,32.47,-120.58,241.83,0.13,-0.94,0.64
580,31.91,-131.10,241.34,0.13,-0.89,0.63
581,32.15,-125.85,242.49,0.22,-0.88,0.57
582,30.53,-124.70,239.82,0.26,-0.85,0.54
583,27.44,-120.38,237.19,0.28,-0.83,0.53
584,29.39,-139.82,233.47,0.21,-0.85,0.61
585,34.38,-152.87,230.02,0.29,-0.85,0.61
586,39.37,-153.76,220.79,0.33,-0.86,0.56
587,46.63,-167.19,219.88,0.30,-0.77,0.66
588,38.49,-169.28,227.37,0.38,-0.76,0.59
589,37.47,-160.98,226.95,0.46,-0.77,0.62
590,47.42,-143.34,220.92,0.57,-0.86,0.55
591,32.55,-136.73,225.11,0.55,-0.71,0.64
592,31.73,-126.24,227.27,0.56,-0.74,0.69
593,33.74,-123.74,226.37,0.60,-0.71,0.73
594,38.78,-116.50,221.07,0.66,-0.73,0.73
595,37.53,-118.82,220.34,0.62,-0.66,0.76
596,37.15,-123.91,220.85,0.65,-0.70,0.71
597,34.75,-123.57,220.14,0.70,-0.67,0.69
598,33.28,-112.93,218.02,0.77,-0.66,0.65
599,31.60,-103.37,217.85,0.77,-0.65,0.69
600,34.35,-94.61,216.02,0.83,-0.66,0.68
601,34.56,-84.73,214.26,0.89,-0.59,0.72
602,37.34,-72.78,209.92,0.93,-0.69,0.72
603,40.78,-70.53,205.62,0.90,-0.72,0.75
604,46.31,-75.31,202.82,0.89,-0.72,0.78
605,47.94,-58.55,199.02,1.02,-0.66,0.65
606,48.84,-63.73,195.57,0.94,-0.60,0.76
607,52.53,-50.46,193.63,1.04,-0.65,0.68
608,51.28,-50.41,192.64,0.96,-0.65,0.72
609,53.15,-49.10,191.22,0.97,-0.62,0.73
610,56.67,-35.28,192.05,1.06,-0.61,0.73
611,66.87,-13.76,188.12,1.13,-0.58,0.72
612,68.70,0.58,183.24,1.10,-0.54,0.76
613,68.75,22.56,183.07,1.11,-0.58,0.70
614,70.69,33.24,179.68,1.05,-0.59,0.78
615,74.60,55.31,181.47,1.05,-0.56,0.76
616,69.39,85.40,180.26,1.06,-0.59,0.83
617,64.56,148.90,188.70,1.10,-0.54,0.79
618,76.72,163.86,188.32,0.91,-0.61,0.94
619,77.82,156.64,179.48,0.86,-0.57,0.97
620,76.98,172.84,172.61,0.92,-0.57,0.87
621,70.34,137.62,158.95,0.64,-0.59,1.05
622,53.13,151.63,151.89,0.74,-0.52,0.97
623,39.36,148.26,143.80,0.58,-0.53,1.01
624,38.50,149.59,136.38,0.53,-0.58,1.02
625,21.85,125.82,129.08,0.35,-0.56,1.26
626,13.71,108.81,127.92,0.28,-0.56,1.11
627,17.92,88.84,125.27,0.37,-0.64,1.16
628,-24.66,152.29,117.56,0.65,-0.58,1.38
629,0.76,117.71,117.60,0.37,-0.57,1.15
630,2.40,129.02,117.91,0.42,-0.53,1.00
631,-1.22,-25.76,95.97,0.05,-0.51,1.16
632,1.30,-144.81,66.90,0.38,-0.58,1.25
633,36.27,-225.51,41.53,0.58,-0.60,1.16
634,43.73,-344.46,23.54,0.45,-0.42,1.07
635,52.90,-433.77,1.66,0.62,-0.48,0.78
636,62.02,-495.88,-8.08,0.57,-0.43,0.80
637,21.30,-228.03,5.18,1.54,-0.37,0.37
638,-17.91,69.59,33.89,1.41,-0.33,0.62
639,-10.32,77.92,35.48,0.67,-0.54,1.10
640,-14.17,63.08,28.73,0.59,-0.45,0.82
641,-5.47,-23.92,14.78,0.18,-0.48,1.10
642,-4.99,54.09,19.79,0.78,-0.36,0.72
643,17.62,-36.95,6.03,0.15,-0.51,1.11
644,36.03,-91.16,0.27,0.40,-0.43,0.87
645,40.93,-113.05,-7.65,0.46,-0.35,0.73
646,21.53,-18.06,2.03,0.77,-0.21,0.41
647,-7.80,69.31,9.42,0.57,-0.21,0.60
648,-14.75,98.06,14.37,0.31,-0.30,0.81
649,-6.75,55.39,8.81,0.19,-0.33,0.87
650,12.29,55.02,8.14,0.37,-0.41,0.90
651,17.50,5.42,-1.62,0.17,-0.34,0.97
652,26.56,-35.27,-7.71,0.22,-0.30,0.75
653,18.12,-62.70,-16.43,0.22,-0.31,0.81
654,-2.18,-17.01,-7.86,0.31,-0.25,0.72
655,-8.50,6.60,-1.92,0.22,-0.30,0.82
656,-10.34,32.14,5.73,0.24,-0.33,0.90
657,-9.63,32.00,7.39,0.16,-0.36,1.00
658,-7.95,8.84,3.44,0.12,-0.36,0.99
659,-9.71,36.81,6.66,0.34,-0.36,0.94
660,-3.16,-22.08,-3.07,-0.02,-0.40,1.11
661,-0.89,-27.47,-3.65,0.20,-0.35,0.86
662,-13.25,-2.12,-2.66,0.36,-0.32,0.84
663,-17.34,21.54,-0.29,0.33,-0.35,0.87
664,-10.09,5.74,-3.95,0.21,-0.38,0.99
665,-4.92,-1.34,-6.29,0.24,-0.38,0.97
666,-4.85,0.73,-7.94,0.27,-0.38,0.98
667,-6.73,7.01,-7.76,0.28,-0.39,0.97
668,-6.08,-6.66,-10.92,0.21,-0.42,1.02
669,-5.40,-4.38,-10.32,0.25,-0.42,1.01
670,-4.99,2.81,-8.27,0.27,-0.42,1.02
671,-2.66,12.00,-6.38,0.26,-0.43,1.04
672,-0.99,14.09,-6.47,0.24,-0.43,1.05
673,0.44,14.12,-6.76,0.22,-0.43,1.06
674,1.60,16.29,-6.79,0.21,-0.43,1.05
675,2.58,19.01,-6.18,0.18,-0.42,1.03
676,3.47,10.43,-8.35,0.14,-0.41,1.04
677,3.66,10.31,-8.70,0.16,-0.39,1.01
678,3.02,9.34,-8.72,0.14,-0.39,0.99
679,3.54,6.24,-8.81,0.12,-0.37,1.00
