,gyro_x,gyro_y,gyro_z,acce_x,acce_y,acce_z
0,1.48,-2.21,6.43,0.21,-0.16,1.02
1,2.11,0.35,6.38,0.23,-0.16,1.03
2,2.50,3.13,6.05,0.23,-0.15,1.03
3,2.66,5.19,6.29,0.22,-0.14,1.03
4,3.10,6.29,6.66,0.21,-0.14,1.02
5,3.15,7.39,7.02,0.20,-0.14,1.01
6,2.81,8.93,7.40,0.21,-0.14,0.99
7,2.64,9.54,7.11,0.21,-0.14,0.98
8,1.79,9.59,6.72,0.21,-0.15,0.97
9,0.90,8.64,5.69,0.21,-0.14,0.95
10,-0.56,7.07,4.69,0.21,-0.14,0.93
11,-2.32,4.93,3.24,0.20,-0.14,0.93
12,-4.15,1.95,2.20,0.18,-0.14,0.93
13,-5.40,0.03,1.69,0.18,-0.15,0.95
14,-6.79,-2.56,1.21,0.17,-0.15,0.96
15,-8.12,-3.56,1.39,0.17,-0.15,0.98
16,-7.86,-4.35,1.77,0.16,-0.16,0.98
17,-7.69,-5.50,2.20,0.16,-0.15,1.02
18,-6.64,-5.95,2.75,0.16,-0.16,1.04
19,-5.85,-4.11,3.85,0.17,-0.17,1.06
20,-5.01,-2.61,5.65,0.17,-0.17,1.08
21,-3.74,-1.56,7.07,0.18,-0.18,1.10
22,-2.72,-0.34,7.98,0.19,-0.17,1.11
23,-1.59,2.26,9.15,0.22,-0.18,1.11
24,0.34,6.87,9.85,0.24,-0.18,1.11
25,1.19,9.73,9.37,0.25,-0.19,1.11
26,2.08,10.79,8.85,0.26,-0.17,1.09
27,2.40,10.72,7.04,0.26,-0.16,1.08
28,2.92,7.97,5.25,0.25,-0.15,1.07
29,2.72,5.01,3.44,0.25,-0.15,1.06
30,2.31,1.92,2.00,0.25,-0.14,1.05
31,1.83,0.09,0.96,0.24,-0.13,1.06
32,1.57,-1.21,0.41,0.23,-0.13,1.06
33,1.27,-1.79,0.15,0.23,-0.13,1.07
34,1.83,-1.19,0.34,0.22,-0.14,1.06
35,1.74,-0.64,0.37,0.22,-0.13,1.07
36,2.29,0.08,0.66,0.23,-0.13,1.07
37,2.79,1.60,0.67,0.22,-0.14,1.07
38,2.92,3.07,0.60,0.23,-0.13,1.08
39,3.22,3.82,0.56,0.23,-0.13,1.08
40,2.81,4.27,0.44,0.22,-0.13,1.06
41,1.97,4.43,0.27,0.21,-0.13,1.06
42,1.85,4.52,0.18,0.22,-0.12,1.06
43,1.34,4.06,-0.43,0.22,-0.12,1.05
44,0.72,3.50,-1.53,0.22,-0.13,1.04
45,0.37,1.76,-2.49,0.21,-0.12,1.05
46,-0.14,0.81,-3.31,0.22,-0.13,1.06
47,-0.11,1.31,-3.85,0.21,-0.13,1.05
48,-0.08,2.18,-4.08,0.21,-0.12,1.06
49,0.06,3.04,-4.85,0.20,-0.13,1.06
50,0.12,1.97,-5.01,0.18,-0.14,1.05
51,-0.06,1.63,-4.87,0.17,-0.13,1.05
52,-0.38,1.80,-4.52,0.16,-0.14,1.04
53,-0.67,2.20,-4.23,0.16,-0.14,1.04
54,-1.31,1.56,-4.06,0.16,-0.14,1.03
55,-1.74,0.43,-4.17,0.15,-0.15,1.04
56,-2.02,0.08,-3.88,0.15,-0.14,1.04
57,-1.97,0.41,-3.30,0.15,-0.14,1.04
58,-2.11,0.05,-3.01,0.14,-0.14,1.03
59,-1.74,0.47,-2.63,0.15,-0.15,1.04
60,-1.39,0.64,-2.35,0.14,-0.15,1.05
61,-0.81,0.31,-2.20,0.14,-0.15,1.04
62,-0.44,0.44,-2.21,0.15,-0.15,1.05
63,-0.05,0.38,-2.03,0.14,-0.16,1.05
64,0.46,-0.76,-2.20,0.14,-0.16,1.05
65,1.15,-2.26,-2.23,0.14,-0.16,1.04
66,1.62,-2.58,-2.53,0.15,-0.16,1.04
67,2.03,-1.02,-2.41,0.16,-0.16,1.04
68,2.24,-0.69,-2.43,0.15,-0.16,1.04
69,2.29,-0.81,-2.41,0.14,-0.16,1.03
70,2.23,-1.60,-2.03,0.14,-0.16,1.02
71,1.69,-1.44,-1.53,0.14,-0.15,1.02
72,1.83,-0.34,-1.13,0.15,-0.15,1.01
73,1.91,-0.92,-1.18,0.15,-0.14,1.01
74,1.68,-1.21,-1.30,0.15,-0.15,1.01
75,1.68,-0.44,-1.02,0.15,-0.15,1.00
76,1.34,0.03,-0.60,0.15,-0.15,1.01
77,0.66,-0.78,-0.81,0.16,-0.14,1.01
78,0.73,-1.16,-0.79,0.16,-0.14,1.01
79,0.70,-2.79,-1.18,0.17,-0.14,1.01
80,0.47,-3.83,-1.45,0.17,-0.15,1.02
81,0.50,-4.72,-1.60,0.17,-0.14,1.02
82,0.06,-5.07,-2.21,0.17,-0.14,1.01
83,-0.40,-3.18,-1.91,0.17,-0.15,1.01
84,-0.32,-2.79,-1.71,0.17,-0.14,1.03
85,-0.35,-3.71,-1.71,0.17,-0.16,1.02
86,-0.56,-3.33,-1.36,0.17,-0.16,1.04
87,-0.76,-2.23,-1.25,0.17,-0.15,1.02
88,-0.89,-2.20,-0.95,0.18,-0.16,1.02
89,-0.93,-2.40,-1.30,0.18,-0.16,1.03
90,-1.04,-1.11,-1.31,0.19,-0.16,1.03
91,-1.21,-0.61,-1.51,0.19,-0.16,1.02
92,-1.22,-0.87,-1.89,0.18,-0.16,1.02
93,-1.59,-1.18,-1.69,0.18,-0.16,1.02
94,-1.79,-1.01,-1.88,0.18,-0.15,1.02
95,-2.27,-1.05,-1.97,0.18,-0.15,1.01
96,-2.53,-1.74,-2.41,0.18,-0.15,1.02
97,-2.75,-2.50,-2.76,0.18,-0.15,1.01
98,-3.28,-3.07,-2.78,0.17,-0.16,1.01
99,-3.57,-3.15,-2.56,0.18,-0.16,1.02
100,-4.09,-4.14,-2.44,0.17,-0.16,1.02
101,-3.89,-4.58,-2.14,0.17,-0.16,1.03
102,-3.83,-4.35,-1.56,0.17,-0.16,1.04
103,-4.09,-3.56,-1.21,0.18,-0.17,1.05
104,-4.15,-3.21,-1.01,0.18,-0.17,1.05
105,-3.57,-1.59,-1.11,0.19,-0.17,1.07
106,-3.42,-1.02,-1.68,0.19,-0.17,1.07
107,-3.05,-0.85,-2.06,0.19,-0.17,1.08
108,-2.75,-0.06,-1.98,0.18,-0.17,1.07
109,-2.89,0.05,-1.56,0.18,-0.17,1.08
110,-2.87,-1.19,-1.83,0.18,-0.17,1.06
111,-3.01,-1.56,-1.73,0.18,-0.17,1.06
112,-3.13,-1.37,-1.92,0.18,-0.18,1.07
113,-3.07,-2.14,-2.35,0.18,-0.18,1.07
114,-2.87,-3.10,-2.43,0.17,-0.18,1.06
115,-2.52,-2.96,-2.41,0.17,-0.18,1.07
116,-2.31,-2.47,-1.88,0.17,-0.18,1.06
117,-2.34,-2.40,-1.59,0.17,-0.18,1.06
118,-2.46,-2.08,-1.04,0.18,-0.19,1.06
119,-2.40,-3.02,-0.93,0.18,-0.18,1.07
120,-2.41,-2.58,-0.47,0.18,-0.19,1.06
121,-2.21,-2.12,0.00,0.18,-0.17,1.06
122,-2.20,-1.40,0.43,0.18,-0.18,1.06
123,-2.26,-1.73,0.46,0.19,-0.17,1.05
124,-2.23,-0.69,0.38,0.19,-0.17,1.05
125,-1.97,-1.51,0.67,0.19,-0.17,1.05
126,-1.88,-1.56,0.52,0.18,-0.18,1.05
127,-2.11,-2.17,0.23,0.19,-0.17,1.05
128,-1.80,-2.58,-0.15,0.19,-0.17,1.05
129,-1.62,-2.89,-0.18,0.19,-0.17,1.06
130,-1.21,-2.73,-0.11,0.19,-0.18,1.06
131,-0.93,-2.12,0.20,0.19,-0.17,1.05
132,-0.50,-1.82,0.06,0.19,-0.17,1.04
133,-0.43,-1.92,0.21,0.19,-0.17,1.06
134,0.08,-2.78,0.00,0.19,-0.17,1.05
135,0.29,-3.39,0.09,0.19,-0.17,1.05
136,0.18,-3.40,0.27,0.19,-0.17,1.06
137,0.15,-3.15,0.41,0.19,-0.18,1.05
138,0.34,-3.05,0.69,0.19,-0.18,1.04
139,0.73,-2.99,0.90,0.19,-0.18,1.04
140,1.05,-2.72,1.02,0.18,-0.18,1.04
141,1.16,-2.18,1.21,0.19,-0.18,1.04
142,1.37,-1.80,1.27,0.19,-0.18,1.04
143,1.33,-1.11,1.18,0.18,-0.17,1.02
144,1.16,-0.55,1.07,0.19,-0.17,1.02
145,0.84,-0.09,1.44,0.19,-0.16,1.01
146,0.90,-0.81,1.42,0.18,-0.16,1.01
147,0.64,-1.27,1.31,0.18,-0.15,1.01
148,0.20,-1.31,1.56,0.19,-0.15,0.99
149,-0.34,-1.28,1.54,0.19,-0.15,0.98
150,-0.50,-1.04,1.48,0.19,-0.15,0.99
151,-1.30,-1.69,1.76,0.19,-0.15,0.98
152,-1.62,-2.31,1.42,0.19,-0.15,0.99
153,-2.11,-2.73,1.01,0.20,-0.15,0.98
154,-2.24,-3.37,0.49,0.20,-0.14,0.98
155,-2.75,-4.46,0.15,0.19,-0.15,1.00
156,-2.75,-5.05,0.12,0.19,-0.16,1.00
157,-2.85,-4.35,0.40,0.20,-0.15,1.00
158,-3.15,-3.47,0.70,0.19,-0.16,0.99
159,-3.25,-2.98,0.89,0.19,-0.17,1.00
160,-3.80,-2.24,1.16,0.19,-0.16,1.00
161,-4.29,-0.81,1.65,0.19,-0.17,1.00
162,-4.58,-0.34,1.57,0.19,-0.17,1.00
163,-4.89,-0.20,1.77,0.18,-0.17,1.01
164,-5.30,-0.49,2.02,0.18,-0.17,1.01
165,-5.71,-1.47,1.94,0.19,-0.17,1.02
166,-5.54,-1.27,2.38,0.20,-0.18,1.04
167,-5.37,-0.81,2.43,0.21,-0.18,1.05
168,-5.04,0.55,2.35,0.22,-0.19,1.07
169,-4.31,1.63,2.14,0.24,-0.19,1.07
170,-3.37,2.69,1.60,0.24,-0.19,1.08
171,-2.52,4.93,1.33,0.24,-0.19,1.09
172,-1.53,7.80,1.07,0.24,-0.18,1.07
173,-1.04,9.18,0.70,0.23,-0.18,1.07
174,-0.70,10.24,0.26,0.22,-0.18,1.04
175,-0.52,11.54,-0.03,0.21,-0.17,1.02
176,-0.66,11.74,0.53,0.20,-0.17,1.02
177,-1.24,10.46,0.63,0.18,-0.18,1.00
178,-1.95,8.72,0.55,0.18,-0.18,1.00
179,-2.26,7.48,-0.11,0.19,-0.18,1.00
180,-2.43,5.66,-0.72,0.19,-0.18,1.00
181,-2.29,3.69,-1.04,0.17,-0.18,1.00
182,-2.34,2.64,-1.04,0.18,-0.18,1.01
183,-2.40,1.94,-1.21,0.18,-0.18,1.01
184,-2.34,-0.06,-1.39,0.17,-0.17,1.01
185,-1.88,0.43,-1.37,0.19,-0.17,1.03
186,-1.73,-0.67,-1.37,0.18,-0.18,1.02
187,-2.12,0.41,-0.76,0.18,-0.18,1.02
188,-2.06,1.01,-0.41,0.18,-0.18,1.03
189,-1.86,1.19,-0.14,0.18,-0.18,1.04
190,-1.45,0.81,-0.23,0.19,-0.18,1.04
191,-1.34,0.72,-0.56,0.19,-0.18,1.05
192,-1.02,0.92,-0.61,0.19,-0.18,1.05
193,-0.95,0.03,-0.85,0.19,-0.18,1.05
194,-0.53,-1.16,-1.25,0.18,-0.19,1.06
195,-0.14,-1.79,-1.16,0.18,-0.19,1.06
196,0.02,-2.15,-1.04,0.18,-0.19,1.06
197,0.05,-1.30,-1.01,0.19,-0.19,1.06
198,0.37,-0.20,-0.75,0.18,-0.19,1.04
199,0.55,-0.21,-0.47,0.19,-0.19,1.06
200,0.44,0.02,-0.32,0.18,-0.19,1.05
201,0.34,1.11,0.00,0.19,-0.19,1.04
202,0.14,1.74,-0.06,0.19,-0.18,1.04
203,0.08,1.94,-0.15,0.19,-0.18,1.04
204,0.05,1.66,-0.32,0.19,-0.18,1.04
205,0.55,1.31,-0.47,0.18,-0.18,1.04
206,0.56,2.46,-0.40,0.18,-0.18,1.05
207,0.84,2.75,-0.66,0.19,-0.18,1.04
208,1.02,1.54,-1.10,0.18,-0.17,1.04
209,1.10,0.82,-0.87,0.18,-0.17,1.03
210,0.82,-0.17,-1.10,0.18,-0.17,1.03
211,0.84,-0.81,-1.10,0.17,-0.17,1.02
212,0.63,-2.26,-1.33,0.18,-0.17,1.02
213,0.40,-3.08,-1.69,0.18,-0.18,1.02
214,0.29,-3.18,-1.54,0.17,-0.18,1.02
215,0.08,-3.39,-1.28,0.18,-0.18,1.03
216,0.05,-2.99,-1.19,0.18,-0.18,1.03
217,0.69,-2.47,-1.04,0.19,-0.19,1.03
218,0.69,-1.95,-1.33,0.18,-0.18,1.03
219,0.60,-2.00,-1.44,0.17,-0.19,1.03
220,0.63,-2.40,-1.30,0.17,-0.18,1.03
221,0.49,-2.58,-0.82,0.17,-0.17,1.02
222,-0.02,-2.49,-0.26,0.17,-0.18,1.01
223,-0.66,-2.18,0.23,0.18,-0.17,1.02
224,-0.73,-2.47,0.50,0.18,-0.17,1.02
225,-0.67,-2.40,0.75,0.19,-0.18,1.02
226,-0.78,-1.08,0.75,0.19,-0.18,1.02
227,-0.34,-0.35,0.90,0.19,-0.18,1.04
228,0.14,-0.52,0.69,0.19,-0.18,1.04
229,0.60,-0.69,0.61,0.19,-0.18,1.04
230,0.66,-0.92,0.56,0.19,-0.18,1.04
231,0.81,-1.31,0.31,0.20,-0.18,1.03
232,0.93,-0.96,0.34,0.19,-0.18,1.04
233,1.18,-0.70,0.23,0.19,-0.18,1.04
234,1.27,-1.16,0.35,0.18,-0.18,1.04
235,1.39,-1.15,0.85,0.18,-0.18,1.04
236,1.27,-0.26,0.82,0.18,-0.18,1.03
237,1.16,-0.06,1.15,0.19,-0.18,1.04
238,1.37,-0.70,1.13,0.18,-0.18,1.04
239,1.16,-0.21,1.60,0.17,-0.18,1.02
240,1.01,0.17,2.08,0.18,-0.18,1.02
241,0.58,-0.23,2.15,0.18,-0.17,1.02
242,0.43,-0.69,2.23,0.19,-0.18,1.03
243,0.23,-0.61,2.00,0.19,-0.18,1.02
244,0.27,-0.46,1.74,0.20,-0.18,1.03
245,0.32,-0.43,1.39,0.20,-0.17,1.03
246,0.18,-0.72,1.07,0.20,-0.18,1.02
247,0.03,-1.33,0.60,0.19,-0.18,1.03
248,-0.12,-1.71,0.31,0.20,-0.18,1.03
249,-0.53,-2.31,0.17,0.19,-0.18,1.04
250,-0.61,-2.96,-0.17,0.20,-0.18,1.05
251,-0.41,-2.00,0.11,0.20,-0.19,1.04
252,-0.15,-0.92,0.43,0.20,-0.19,1.04
253,0.20,-0.47,0.82,0.19,-0.20,1.05
254,0.44,0.27,0.87,0.20,-0.19,1.03
255,0.70,0.11,1.02,0.20,-0.19,1.05
256,0.96,0.05,0.75,0.19,-0.19,1.05
257,1.37,-0.02,0.92,0.20,-0.19,1.05
258,1.36,0.53,1.01,0.19,-0.19,1.05
259,1.48,0.66,1.11,0.19,-0.19,1.05
260,1.73,1.15,1.21,0.20,-0.18,1.05
261,2.00,1.80,1.60,0.20,-0.18,1.04
262,2.08,2.27,1.66,0.20,-0.18,1.04
263,1.95,2.61,1.31,0.20,-0.18,1.03
264,1.51,2.08,1.07,0.20,-0.18,1.02
265,1.16,1.30,0.98,0.19,-0.18,1.02
266,0.98,0.87,0.64,0.20,-0.17,1.02
267,0.73,-0.60,0.52,0.19,-0.17,1.02
268,0.66,-0.08,0.35,0.20,-0.18,1.02
269,0.47,-1.04,0.60,0.19,-0.17,1.02
270,0.85,-0.44,0.90,0.20,-0.18,1.03
271,1.10,0.37,0.76,0.20,-0.18,1.03
272,1.65,1.88,0.66,0.21,-0.18,1.03
273,1.47,1.57,0.81,0.19,-0.18,1.02
274,1.56,0.96,0.89,0.19,-0.18,1.02
275,1.13,-0.02,0.98,0.19,-0.17,1.01
276,0.55,0.95,1.24,0.20,-0.17,1.01
277,0.11,0.53,1.45,0.20,-0.17,1.01
278,0.27,0.49,1.31,0.20,-0.17,1.01
279,0.35,1.27,1.36,0.20,-0.17,1.02
280,0.32,2.14,1.31,0.20,-0.17,1.00
281,0.34,1.36,0.99,0.20,-0.17,1.01
282,0.14,0.27,0.47,0.20,-0.17,1.01
283,0.11,-0.40,-0.09,0.21,-0.17,1.01
284,-0.44,-1.15,-0.53,0.21,-0.17,1.02
285,-0.37,-1.47,-0.69,0.20,-0.17,1.02
286,-0.64,-2.14,-0.90,0.20,-0.17,1.03
287,-0.11,-0.82,-0.81,0.20,-0.17,1.04
288,-0.17,0.02,-0.82,0.21,-0.17,1.04
289,-0.06,1.04,-0.81,0.20,-0.18,1.04
290,0.15,1.95,-0.87,0.20,-0.18,1.04
291,-0.06,1.02,-0.70,0.18,-0.18,1.04
292,0.24,0.49,-0.79,0.18,-0.17,1.05
293,0.06,0.55,-0.43,0.17,-0.18,1.04
294,0.20,0.58,-0.27,0.17,-0.18,1.03
295,-0.08,0.00,-0.11,0.17,-0.18,1.03
296,-0.08,-0.24,0.05,0.18,-0.18,1.04
297,-0.09,0.23,0.08,0.18,-0.19,1.05
298,-0.12,0.02,0.20,0.18,-0.18,1.04
299,0.02,-0.43,0.11,0.18,-0.19,1.04
300,0.09,-1.15,0.14,0.19,-0.19,1.05
301,0.26,-1.18,0.09,0.19,-0.19,1.04
302,0.60,-0.95,0.37,0.18,-0.18,1.05
303,0.79,-1.02,0.40,0.18,-0.18,1.06
304,1.04,-0.41,0.64,0.18,-0.18,1.06
305,1.18,0.02,1.13,0.18,-0.19,1.06
306,1.25,-0.03,1.19,0.18,-0.19,1.05
307,1.34,0.20,1.65,0.18,-0.18,1.04
308,1.21,0.12,1.62,0.19,-0.18,1.04
309,1.37,-0.26,1.86,0.19,-0.18,1.03
310,1.42,-0.85,1.71,0.19,-0.18,1.04
311,1.62,-0.40,1.73,0.19,-0.17,1.02
312,1.30,-0.09,1.63,0.21,-0.17,1.02
313,1.19,-0.61,1.11,0.20,-0.17,1.01
314,1.13,-1.76,0.81,0.20,-0.17,1.02
315,0.75,-1.39,0.79,0.20,-0.16,1.01
316,0.69,-0.38,0.66,0.20,-0.17,1.02
317,0.41,-0.41,0.89,0.20,-0.17,1.02
318,0.15,-0.31,0.99,0.20,-0.16,1.02
319,-0.23,0.44,1.16,0.21,-0.17,1.02
320,-0.27,0.09,1.18,0.20,-0.17,1.03
321,-0.27,-0.72,1.11,0.19,-0.17,1.03
322,0.02,0.03,0.90,0.20,-0.17,1.04
323,0.37,0.34,1.10,0.20,-0.18,1.05
324,0.40,1.05,0.87,0.20,-0.18,1.05
325,0.64,0.90,0.82,0.20,-0.18,1.05
326,0.96,0.82,0.67,0.20,-0.18,1.05
327,0.93,1.15,0.50,0.21,-0.18,1.04
328,0.92,1.31,0.46,0.20,-0.18,1.04
329,0.85,1.40,0.43,0.20,-0.18,1.04
330,0.84,1.68,0.75,0.20,-0.17,1.03
331,0.90,1.71,0.69,0.19,-0.18,1.03
332,0.93,1.79,0.85,0.20,-0.18,1.03
333,0.92,2.18,0.84,0.20,-0.17,1.03
334,0.87,2.67,0.56,0.20,-0.18,1.03
335,0.93,3.34,0.84,0.20,-0.18,1.02
336,1.24,3.25,0.64,0.19,-0.17,1.02
337,0.92,2.98,0.31,0.20,-0.17,1.02
338,0.70,2.03,0.35,0.18,-0.17,1.02
339,0.50,0.93,0.35,0.18,-0.17,1.02
340,0.46,0.52,0.26,0.19,-0.17,1.01
341,0.34,0.15,0.43,0.18,-0.17,1.02
342,0.18,-0.11,0.53,0.19,-0.18,1.02
343,0.15,-0.26,0.09,0.19,-0.17,1.03
344,0.21,0.53,0.55,0.20,-0.17,1.02
345,0.18,0.20,0.23,0.19,-0.17,1.03
346,0.58,0.41,0.00,0.20,-0.17,1.02
347,0.14,1.36,0.23,0.19,-0.17,1.02
348,0.09,1.45,0.27,0.19,-0.18,1.04
349,-0.20,0.12,0.31,0.18,-0.18,1.03
350,0.08,-0.40,0.14,0.19,-0.18,1.03
351,-0.26,0.11,0.32,0.19,-0.18,1.03
352,-0.17,-0.21,0.38,0.19,-0.18,1.03
353,0.31,-0.32,0.34,0.19,-0.18,1.05
354,0.40,0.29,0.24,0.19,-0.18,1.04
355,0.66,0.24,0.29,0.19,-0.17,1.03
356,0.95,0.37,0.46,0.19,-0.18,1.04
357,0.96,0.66,0.82,0.18,-0.17,1.04
358,0.90,0.58,0.84,0.20,-0.17,1.04
359,0.90,0.76,0.92,0.19,-0.17,1.04
360,0.49,0.99,0.67,0.19,-0.17,1.04
361,0.43,0.69,0.40,0.20,-0.17,1.04
362,0.49,-0.09,0.20,0.20,-0.17,1.04
363,0.50,-0.32,-0.31,0.20,-0.18,1.03
364,0.64,0.52,-0.47,0.21,-0.17,1.04
365,0.93,0.87,-0.85,0.20,-0.18,1.03
366,1.11,1.40,-0.75,0.19,-0.18,1.04
367,1.27,1.91,-0.63,0.20,-0.18,1.03
368,1.24,2.15,-0.50,0.19,-0.17,1.03
369,1.28,2.78,-0.43,0.18,-0.17,1.03
370,0.89,3.85,0.06,0.19,-0.17,1.02
371,0.67,4.23,0.08,0.18,-0.17,1.02
372,0.60,4.03,-0.14,0.18,-0.17,1.02
373,0.63,3.36,-0.15,0.18,-0.17,1.02
374,0.53,2.23,-0.37,0.18,-0.17,1.01
375,0.31,1.02,-0.79,0.18,-0.17,1.02
376,0.15,-0.02,-1.24,0.18,-0.17,1.01
377,-0.06,-0.50,-1.30,0.18,-0.16,1.02
378,-0.11,-2.14,-1.31,0.17,-0.17,1.02
379,-0.26,-2.43,-0.72,0.17,-0.17,1.03
380,-0.63,-1.73,-0.29,0.18,-0.17,1.03
381,-0.69,-1.69,0.02,0.19,-0.17,1.02
382,-0.67,-1.19,0.21,0.19,-0.17,1.03
383,-0.52,-0.29,0.58,0.19,-0.17,1.04
384,-0.26,-0.08,0.31,0.19,-0.18,1.04
385,-0.43,0.43,0.20,0.19,-0.18,1.04
386,-0.35,1.15,0.09,0.19,-0.18,1.04
387,0.08,0.44,0.05,0.18,-0.18,1.05
388,0.31,0.06,0.17,0.19,-0.18,1.05
389,0.18,0.52,0.20,0.18,-0.18,1.05
390,0.38,0.98,0.32,0.19,-0.18,1.04
391,0.44,0.31,0.15,0.19,-0.18,1.04
392,0.56,-0.31,0.08,0.19,-0.18,1.04
393,0.20,-0.44,0.11,0.18,-0.18,1.05
394,0.29,-0.61,0.23,0.18,-0.17,1.04
395,0.52,-0.20,0.11,0.19,-0.17,1.04
396,0.55,0.99,0.43,0.19,-0.17,1.03
397,0.63,1.82,0.52,0.19,-0.17,1.03
398,0.52,2.84,0.70,0.19,-0.17,1.03
399,0.52,2.53,0.92,0.18,-0.17,1.02
400,0.20,1.86,0.98,0.18,-0.16,1.02
401,-0.29,1.31,0.76,0.19,-0.16,1.02
402,-0.35,0.92,0.47,0.18,-0.16,1.02
403,-0.63,-0.02,0.49,0.18,-0.16,1.02
404,-0.50,-0.73,0.41,0.18,-0.17,1.03
405,-0.82,-0.08,0.53,0.18,-0.17,1.03
406,-0.81,-0.02,0.75,0.18,-0.17,1.02
407,-0.67,-1.22,0.35,0.18,-0.17,1.02
408,-0.73,-1.53,0.12,0.18,-0.17,1.01
409,-1.25,-1.51,0.44,0.18,-0.16,1.03
410,-1.47,-1.83,0.55,0.18,-0.17,1.03
411,-1.85,-1.80,0.44,0.18,-0.16,1.02
412,-2.27,-1.53,0.60,0.18,-0.17,1.04
413,-2.23,-1.50,0.81,0.19,-0.17,1.03
414,-2.49,-1.47,0.52,0.20,-0.17,1.02
415,-2.73,-1.88,0.26,0.19,-0.17,1.02
416,-2.52,-2.41,-0.18,0.19,-0.17,1.04
417,-2.52,-3.80,-0.52,0.19,-0.17,1.04
418,-2.40,-5.08,-0.61,0.19,-0.18,1.04
419,-1.94,-5.30,-0.52,0.19,-0.18,1.05
420,-2.17,-4.29,0.12,0.18,-0.18,1.05
421,-1.65,-3.48,0.08,0.19,-0.18,1.05
422,-1.65,-3.92,0.12,0.19,-0.18,1.04
423,-1.45,-3.45,-0.12,0.19,-0.18,1.04
424,-1.34,-2.53,-0.12,0.19,-0.18,1.04
425,-1.15,-1.80,0.35,0.19,-0.17,1.04
426,-1.10,-2.40,0.11,0.19,-0.17,1.03
427,-1.25,-2.27,0.52,0.19,-0.18,1.04
428,-0.92,-0.85,0.76,0.19,-0.18,1.05
429,-0.81,-1.50,0.78,0.19,-0.19,1.04
430,-0.75,-1.24,0.75,0.19,-0.18,1.05
431,-0.32,0.00,0.76,0.20,-0.18,1.04
432,-0.03,-0.17,0.79,0.19,-0.18,1.04
433,0.46,-0.41,0.69,0.19,-0.18,1.04
434,0.60,-0.26,0.38,0.19,-0.18,1.04
435,0.79,-0.21,0.32,0.19,-0.18,1.04
436,0.66,-0.67,0.75,0.18,-0.18,1.03
437,0.69,-0.26,0.92,0.18,-0.18,1.03
438,0.53,0.21,1.53,0.18,-0.19,1.03
439,0.29,-0.12,1.79,0.18,-0.18,1.03
440,0.23,-0.35,1.92,0.18,-0.19,1.03
441,-0.03,-0.90,1.86,0.19,-0.19,1.02
442,0.38,-2.08,1.69,0.19,-0.19,1.03
443,0.66,-2.38,1.80,0.19,-0.19,1.04
444,0.52,-2.06,2.35,0.18,-0.19,1.03
445,1.30,-1.48,3.05,0.18,-0.18,1.03
446,0.95,-0.52,3.62,0.18,-0.18,1.03
447,0.87,0.53,3.97,0.19,-0.18,1.02
448,0.56,0.66,4.29,0.20,-0.17,1.01
449,0.06,1.11,4.21,0.20,-0.18,1.02
450,0.00,1.02,4.05,0.21,-0.17,1.02
451,0.15,1.53,3.77,0.21,-0.18,1.02
452,0.24,1.79,3.36,0.22,-0.18,1.03
453,0.55,0.99,2.63,0.21,-0.18,1.05
454,1.04,0.56,2.24,0.22,-0.19,1.04
455,1.27,1.19,2.09,0.21,-0.19,1.05
456,1.76,2.02,2.14,0.22,-0.19,1.06
457,1.65,2.18,1.85,0.21,-0.19,1.04
458,1.71,3.39,1.74,0.22,-0.19,1.04
459,1.63,6.26,1.91,0.22,-0.18,1.02
460,1.15,8.56,2.32,0.22,-0.18,1.02
461,0.46,11.33,1.98,0.23,-0.18,1.02
462,-0.02,13.01,1.66,0.22,-0.18,1.02
463,0.44,12.84,0.87,0.22,-0.18,1.02
464,2.66,10.50,0.31,0.21,-0.18,1.03
465,4.49,11.04,-0.53,0.22,-0.17,1.01
466,0.67,11.74,-0.31,0.20,-0.17,1.01
467,6.14,12.08,-0.32,0.20,-0.18,1.01
468,7.22,13.88,-1.16,0.20,-0.15,1.01
469,8.41,14.55,-2.43,0.20,-0.17,0.99
470,4.93,8.06,-3.42,0.17,-0.16,1.00
471,5.51,9.25,-3.91,0.19,-0.16,1.00
472,4.21,8.23,-3.68,0.17,-0.15,1.03
473,2.87,5.85,-3.07,0.16,-0.16,1.04
474,3.62,5.76,-2.21,0.16,-0.17,1.03
475,3.47,4.66,-1.42,0.16,-0.16,1.04
476,2.47,3.01,-0.98,0.16,-0.17,1.05
477,2.47,0.61,-0.64,0.16,-0.17,1.03
478,1.79,-0.64,-0.34,0.16,-0.17,1.04
479,1.63,-0.41,0.21,0.16,-0.17,1.04
480,1.34,-0.90,0.12,0.17,-0.17,1.04
481,1.18,-1.40,0.06,0.18,-0.17,1.03
482,0.66,-1.92,0.12,0.17,-0.18,1.03
483,0.66,-1.69,-0.21,0.17,-0.18,1.03
484,0.38,-1.73,-0.34,0.17,-0.18,1.04
485,0.26,-1.42,0.14,0.16,-0.18,1.05
486,0.43,-1.66,0.09,0.16,-0.18,1.04
487,0.37,-1.98,0.12,0.17,-0.18,1.04
488,0.66,-1.63,0.14,0.17,-0.19,1.05
489,1.34,-1.53,-0.12,0.18,-0.18,1.06
490,1.82,-2.75,-0.11,0.17,-0.19,1.06
491,2.41,-3.05,-0.52,0.16,-0.19,1.06
492,3.18,-2.87,-0.03,0.16,-0.18,1.05
493,3.54,-1.68,0.43,0.16,-0.18,1.04
494,3.47,-1.83,0.95,0.15,-0.18,1.05
495,3.97,-2.09,1.45,0.15,-0.18,1.04
496,4.03,-1.62,2.12,0.14,-0.18,1.03
497,3.73,-1.42,3.10,0.14,-0.18,1.02
498,3.34,-2.12,3.82,0.14,-0.18,1.02
499,2.87,-2.60,4.27,0.14,-0.18,1.02
500,2.46,-2.96,4.38,0.15,-0.18,1.02
501,2.35,-3.28,4.61,0.15,-0.19,1.02
502,2.41,-4.17,4.96,0.12,-0.20,1.03
503,3.16,-5.59,5.59,0.10,-0.23,1.03
504,3.36,-6.31,6.98,0.07,-0.24,1.05
505,4.11,-5.47,8.70,0.06,-0.24,1.05
506,4.79,-3.24,10.53,0.06,-0.26,1.06
507,5.48,-0.29,12.76,0.03,-0.26,1.06
508,7.47,0.92,15.10,0.01,-0.29,1.07
509,6.78,3.48,11.95,0.01,-0.30,1.08
510,8.18,2.61,18.37,-0.03,-0.30,1.07
511,9.95,0.72,21.60,-0.05,-0.32,1.07
512,10.81,-0.34,23.27,-0.08,-0.34,1.08
513,11.44,-2.08,24.89,-0.12,-0.36,1.09
514,12.96,-2.67,27.74,-0.15,-0.37,1.08
515,12.72,-5.48,28.67,-0.19,-0.38,1.10
516,12.14,-9.48,32.41,-0.24,-0.41,1.12
517,16.67,-15.89,35.57,-0.24,-0.45,1.08
518,22.43,-13.74,35.56,-0.21,-0.46,1.07
519,24.09,-19.66,37.11,-0.20,-0.48,1.05
520,30.02,-19.36,37.11,-0.18,-0.48,1.02
521,32.76,-21.71,38.75,-0.23,-0.49,1.02
522,35.94,-24.60,43.44,-0.25,-0.50,1.02
523,37.02,-28.24,49.71,-0.29,-0.49,1.00
524,35.77,-34.99,58.34,-0.34,-0.51,1.01
525,33.30,-47.51,68.92,-0.41,-0.53,1.02
526,30.63,-62.63,79.53,-0.45,-0.55,1.04
527,29.42,-77.77,95.74,-0.50,-0.59,1.10
528,28.70,-91.71,109.50,-0.45,-0.59,1.10
529,28.63,-98.53,121.13,-0.37,-0.62,1.08
530,30.95,-102.98,132.32,-0.31,-0.63,1.09
531,36.52,-104.20,138.09,-0.24,-0.69,1.08
532,40.17,-98.67,146.37,-0.19,-0.66,1.06
533,48.47,-95.66,149.89,-0.13,-0.68,1.03
534,53.37,-93.28,152.73,-0.10,-0.65,0.99
535,55.79,-92.41,156.00,-0.15,-0.70,0.94
536,50.18,-88.82,164.84,-0.16,-0.65,0.88
537,47.31,-88.41,180.26,-0.17,-0.64,0.85
538,47.02,-94.08,189.50,-0.16,-0.69,0.89
539,45.22,-94.29,197.48,-0.07,-0.67,0.85
540,41.10,-92.95,206.23,-0.06,-0.69,0.87
541,35.34,-94.06,216.29,-0.01,-0.68,0.86
542,35.40,-105.59,223.51,0.00,-0.69,0.91
543,38.43,-110.20,229.10,0.10,-0.66,0.92
544,43.63,-115.22,231.36,0.15,-0.66,0.93
545,46.81,-117.40,233.88,0.23,-0.63,0.85
546,49.08,-112.44,233.59,0.30,-0.61,0.80
547,49.98,-105.65,232.43,0.35,-0.59,0.73
548,48.61,-101.60,232.12,0.34,-0.57,0.70
549,47.82,-106.52,231.60,0.33,-0.58,0.70
550,46.78,-114.05,232.00,0.35,-0.59,0.72
551,47.88,-114.78,231.98,0.43,-0.61,0.69
552,47.53,-115.59,230.87,0.50,-0.57,0.63
553,50.20,-116.81,226.26,0.59,-0.64,0.75
554,51.86,-98.60,226.34,0.64,-0.56,0.77
555,53.68,-77.65,226.03,0.71,-0.55,0.77
556,52.81,-60.32,224.84,0.73,-0.52,0.79
557,52.27,-45.77,221.89,0.80,-0.50,0.74
558,48.85,-38.53,219.83,0.75,-0.51,0.81
559,46.09,-17.45,222.50,0.75,-0.50,0.86
560,44.11,-2.75,223.37,0.77,-0.48,0.80
561,47.30,-8.67,219.27,0.78,-0.49,0.79
562,45.04,-17.22,214.41,0.76,-0.47,0.80
563,44.43,-30.02,209.66,0.78,-0.47,0.76
564,43.07,-34.49,204.21,0.83,-0.44,0.74
565,47.57,-32.64,195.05,0.88,-0.47,0.76
566,49.54,-24.98,189.07,0.89,-0.45,0.79
567,49.77,-16.84,183.74,0.86,-0.44,0.81
568,52.09,-13.83,181.34,0.81,-0.45,0.82
569,53.34,-18.95,179.95,0.76,-0.44,0.79
570,51.33,-20.93,182.09,0.73,-0.42,0.75
571,48.09,-17.95,185.91,0.75,-0.40,0.70
572,46.11,-6.93,187.82,0.81,-0.40,0.71
573,43.42,0.73,184.41,0.87,-0.39,0.73
574,43.63,3.51,179.74,0.91,-0.43,0.78
575,41.85,7.51,176.76,0.92,-0.41,0.82
576,42.66,4.40,173.39,0.96,-0.43,0.85
577,45.30,13.24,168.32,1.03,-0.43,0.87
578,46.18,27.22,164.03,1.07,-0.41,0.87
579,44.93,45.97,158.93,1.09,-0.40,0.91
580,45.24,62.69,152.53,1.13,-0.42,0.93
581,41.74,78.14,146.37,1.15,-0.39,0.96
582,44.05,76.53,137.66,1.13,-0.38,1.01
583,46.76,70.08,128.73,1.16,-0.37,0.97
584,45.95,68.03,116.08,1.15,-0.35,0.94
585,44.63,78.09,111.94,1.16,-0.32,0.87
586,40.79,75.88,101.79,1.13,-0.31,0.91
587,40.95,73.42,92.98,1.14,-0.32,0.93
588,35.89,67.95,81.57,1.09,-0.19,0.84
589,33.19,46.55,68.64,1.07,-0.29,0.85
590,12.56,83.39,64.90,1.10,-0.27,0.92
591,9.28,114.89,65.79,1.02,-0.26,0.95
592,6.12,141.68,63.21,0.95,-0.28,1.01
593,12.08,162.72,63.24,0.87,-0.27,1.04
594,21.85,137.82,52.08,0.66,-0.28,1.08
595,30.41,100.85,38.49,0.56,-0.25,1.01
596,30.63,74.82,27.86,0.50,-0.23,0.95
597,22.52,88.09,25.92,0.47,-0.21,1.01
598,14.85,92.72,22.84,0.38,-0.21,1.04
599,9.22,90.63,18.53,0.32,-0.23,1.04
600,6.38,76.12,12.12,0.24,-0.23,1.06
601,1.74,55.27,7.10,0.15,-0.18,0.94
602,-12.20,61.18,11.89,0.15,-0.17,0.86
603,-9.73,35.27,3.10,0.02,-0.22,0.96
604,1.19,1.54,0.32,-0.00,-0.23,1.06
605,11.79,-43.27,-9.98,-0.02,-0.24,1.05
606,13.94,-69.15,-14.40,0.01,-0.20,0.94
607,5.82,-65.07,-12.64,0.08,-0.19,0.86
608,-6.50,-47.05,-8.55,0.09,-0.20,0.84
609,-21.34,-32.55,-6.46,0.05,-0.19,0.87
610,-26.73,-39.22,-5.45,0.01,-0.22,0.92
611,-24.61,-49.40,-6.44,0.03,-0.26,0.92
612,-20.93,-52.70,-7.30,0.05,-0.26,0.93
613,-19.37,-68.61,-9.24,0.03,-0.26,0.99
614,-19.97,-85.69,-12.09,0.07,-0.27,0.97
615,-23.19,-100.27,-18.00,0.12,-0.27,0.97
616,-25.13,-100.69,-20.20,0.17,-0.27,0.96
617,-24.79,-86.20,-18.27,0.26,-0.27,0.92
618,-24.06,-70.99,-18.21,0.26,-0.30,0.96
619,-25.47,-61.69,-18.72,0.25,-0.29,0.98
620,-32.09,-65.98,-20.29,0.25,-0.30,1.01
621,-33.39,-67.95,-23.30,0.26,-0.31,0.99
622,-39.39,-69.07,-25.77,0.25,-0.30,1.00
623,-31.92,-63.51,-24.09,0.27,-0.34,0.98
624,-32.24,-61.53,-23.85,0.27,-0.33,0.99
625,-22.11,-18.02,-16.11,0.44,-0.29,0.83
626,-24.40,-37.18,-19.85,0.24,-0.36,1.04
627,-23.97,-53.51,-23.42,0.24,-0.37,1.01
628,-18.58,-60.23,-25.98,0.27,-0.37,0.98
629,-13.86,-38.66,-22.31,0.32,-0.35,1.00
630,-15.40,-23.92,-19.50,0.30,-0.37,1.06
631,-18.11,-40.05,-22.38,0.23,-0.34,0.99
632,-13.60,-28.27,-19.74,0.30,-0.35,0.97
633,-11.11,-12.85,-16.61,0.31,-0.35,0.99
634,-6.17,14.72,-11.39,0.33,-0.36,1.01
635,-1.76,21.71,-8.81,0.28,-0.35,1.05
636,2.70,8.08,-11.80,0.26,-0.36,1.05
637,2.69,1.45,-14.84,0.28,-0.34,1.04
638,3.34,11.42,-13.83,0.29,-0.34,1.02
639,4.92,15.47,-12.66,0.26,-0.35,1.04
640,7.07,18.98,-12.41,0.28,-0.36,1.05
641,7.21,10.44,-13.63,0.23,-0.35,1.06
642,9.42,1.88,-14.70,0.24,-0.35,1.05
643,13.36,13.63,-11.69,0.26,-0.36,1.05
644,17.33,21.57,-8.26,0.24,-0.35,1.05
645,20.55,23.91,-6.47,0.23,-0.34,1.03
646,21.13,19.98,-5.88,0.23,-0.33,1.03
647,20.37,19.19,-5.28,0.23,-0.31,1.00
648,22.15,19.83,-4.64,0.24,-0.30,0.99
649,24.03,22.85,-3.54,0.25,-0.29,0.96
650,23.11,22.78,-2.55,0.22,-0.27,0.96
651,23.42,28.47,-0.40,0.22,-0.27,0.96
652,20.72,31.33,0.72,0.23,-0.27,0.95
653,21.05,30.64,1.24,0.22,-0.28,0.96
654,20.44,27.95,1.37,0.22,-0.26,0.96
655,20.78,28.21,1.50,0.23,-0.27,0.95
656,17.88,27.73,0.76,0.21,-0.27,0.97
657,17.27,32.23,1.86,0.21,-0.26,1.01
658,18.09,35.48,3.50,0.22,-0.28,1.01
659,16.95,35.62,3.77,0.20,-0.28,1.01
660,16.58,37.31,5.02,0.20,-0.27,1.01
661,14.98,36.09,4.55,0.21,-0.28,1.00
662,13.82,37.60,5.65,0.19,-0.27,1.02
663,12.56,33.76,5.51,0.19,-0.27,0.98
664,10.82,25.94,4.73,0.18,-0.27,0.98
665,10.47,33.05,5.74,0.21,-0.27,1.00
666,10.98,33.77,6.50,0.18,-0.26,1.01
667,11.19,25.76,6.08,0.15,-0.26,0.99
668,10.64,23.05,4.55,0.15,-0.26,1.01
669,13.01,22.23,4.89,0.17,-0.25,1.02
670,8.29,-0.15,0.89,0.10,-0.24,0.98
671,5.22,0.44,1.19,0.15,-0.25,0.94
672,3.65,4.43,2.43,0.15,-0.24,0.95
673,2.84,2.79,3.24,0.14,-0.24,0.98
674,3.53,9.39,4.43,0.17,-0.25,0.99
675,3.97,8.40,5.08,0.15,-0.25,0.97
676,3.88,2.99,4.87,0.15,-0.24,0.98
677,3.37,-3.37,4.31,0.16,-0.24,0.97
678,1.68,-7.45,3.45,0.17,-0.24,0.96
679,-0.89,-8.09,3.07,0.19,-0.24,0.95
680,-2.26,-13.28,2.21,0.18,-0.24,0.97
681,-2.35,-19.86,0.47,0.18,-0.25,0.98
682,-1.83,-22.26,-0.08,0.21,-0.26,1.00
683,-1.28,-20.12,-0.67,0.23,-0.26,0.99
684,-1.16,-19.53,-1.19,0.24,-0.26,1.00
685,-1.37,-19.07,-1.30,0.23,-0.26,1.02
686,-1.30,-20.27,-1.68,0.23,-0.26,1.01
687,-0.66,-19.24,-1.79,0.24,-0.27,1.02
688,-0.78,-18.60,-2.18,0.24,-0.27,1.01
689,-0.84,-14.20,-2.21,0.24,-0.26,0.98
690,0.95,-2.55,-1.62,0.27,-0.29,0.97
691,4.08,-16.12,-3.16,0.21,-0.27,0.99
692,1.95,-18.05,-5.42,0.22,-0.25,0.98
693,0.66,-23.10,-6.67,0.21,-0.26,0.98
694,0.63,-11.54,-4.64,0.23,-0.27,0.99
695,0.31,-17.39,-3.97,0.16,-0.26,1.02
696,-0.37,-23.28,-4.82,0.19,-0.26,1.01
697,-0.20,-21.47,-5.01,0.22,-0.26,1.01
698,-1.25,-16.20,-3.50,0.23,-0.27,1.02
699,-1.62,-7.56,-1.74,0.23,-0.27,1.02
700,0.73,-12.63,-1.48,0.21,-0.26,1.02
701,0.92,-10.63,-1.65,0.24,-0.26,1.01
702,-0.21,-10.73,-1.86,0.23,-0.25,1.02
703,1.25,-4.03,-0.69,0.26,-0.27,1.00
704,1.77,-2.53,-0.92,0.25,-0.27,1.02
705,3.65,-0.63,-0.95,0.25,-0.27,1.02
706,4.81,-1.10,-1.45,0.24,-0.26,1.01
707,4.89,-2.72,-1.62,0.23,-0.26,0.99
708,4.20,-4.46,-2.27,0.23,-0.26,1.00
709,3.36,-5.73,-2.37,0.23,-0.25,0.98
710,2.75,-3.77,-1.83,0.24,-0.25,0.98
711,2.38,-2.78,-1.39,0.23,-0.25,0.99
712,2.17,-1.53,-1.10,0.24,-0.25,1.00
713,1.97,-0.79,-1.45,0.24,-0.25,0.99
