,gyro_x,gyro_y,gyro_z,acce_x,acce_y,acce_z
0,3.22,-9.80,9.74,0.15,-0.10,1.05
1,4.14,-9.92,10.66,0.15,-0.10,1.06
2,4.14,-10.14,11.51,0.13,-0.09,1.07
3,4.40,-9.60,12.52,0.13,-0.09,1.07
4,4.31,-8.84,13.89,0.12,-0.09,1.06
5,3.91,-7.02,14.78,0.13,-0.09,1.08
6,3.63,-3.54,15.74,0.12,-0.09,1.08
7,4.37,-1.02,16.66,0.13,-0.09,1.07
8,4.89,-1.01,17.54,0.12,-0.09,1.08
9,5.42,-2.60,18.15,0.13,-0.08,1.07
10,5.60,-2.34,18.60,0.14,-0.08,1.08
11,6.70,-2.27,19.30,0.14,-0.08,1.07
12,7.47,-2.64,19.74,0.14,-0.08,1.06
13,7.63,-1.71,20.53,0.16,-0.08,1.05
14,7.59,-1.04,21.39,0.16,-0.07,1.06
15,6.87,-1.74,21.89,0.16,-0.06,1.05
16,7.22,-1.40,22.23,0.17,-0.07,1.05
17,8.03,0.06,22.55,0.17,-0.07,1.06
18,7.79,0.85,22.55,0.17,-0.08,1.05
19,7.57,0.49,22.60,0.18,-0.08,1.04
20,7.45,-1.24,23.01,0.16,-0.07,1.03
21,7.40,-2.15,23.59,0.16,-0.08,1.03
22,7.24,-4.18,24.02,0.15,-0.08,1.02
23,7.28,-5.94,24.41,0.15,-0.08,1.01
24,6.40,-6.73,24.78,0.15,-0.08,1.02
25,6.64,-7.53,25.54,0.15,-0.08,1.03
26,5.98,-7.19,25.97,0.16,-0.09,1.04
27,7.86,-8.66,26.89,0.15,-0.10,1.02
28,8.09,-8.89,26.93,0.17,-0.09,1.03
29,7.28,-8.98,26.99,0.17,-0.09,1.04
30,7.11,-8.32,27.83,0.18,-0.10,1.05
31,6.55,-5.42,28.38,0.18,-0.10,1.06
32,7.08,-9.01,28.67,0.16,-0.09,1.06
33,7.22,-7.33,29.07,0.19,-0.10,1.06
34,7.53,-4.81,29.07,0.20,-0.10,1.05
35,8.00,-2.44,28.93,0.22,-0.10,1.06
36,8.85,-0.82,29.07,0.23,-0.11,1.07
37,9.62,0.66,29.01,0.23,-0.10,1.05
38,9.88,2.05,29.22,0.24,-0.10,1.07
39,9.16,-0.27,29.08,0.23,-0.09,1.05
40,9.39,0.08,28.84,0.24,-0.10,1.05
41,9.36,1.44,28.78,0.24,-0.10,1.05
42,9.97,0.50,28.78,0.23,-0.10,1.06
43,10.38,-0.29,28.84,0.23,-0.11,1.06
44,10.44,-0.03,28.73,0.23,-0.11,1.06
45,10.93,-0.23,28.89,0.23,-0.11,1.07
46,11.40,0.15,28.82,0.23,-0.12,1.07
47,12.41,0.52,28.72,0.23,-0.12,1.06
48,12.50,0.58,29.16,0.23,-0.11,1.05
49,12.43,1.40,29.18,0.23,-0.12,1.05
50,11.92,3.18,29.15,0.24,-0.11,1.05
51,11.71,4.92,29.02,0.24,-0.10,1.04
52,10.37,3.45,28.67,0.24,-0.11,1.05
53,11.21,2.49,28.99,0.24,-0.11,1.04
54,11.53,2.02,28.61,0.24,-0.11,1.06
55,11.34,2.18,28.44,0.24,-0.11,1.06
56,11.25,1.85,28.32,0.25,-0.11,1.05
57,12.11,2.02,28.20,0.24,-0.11,1.04
58,12.02,2.15,28.35,0.24,-0.10,1.04
59,12.90,1.63,28.81,0.22,-0.11,1.04
60,12.64,1.28,28.66,0.23,-0.11,1.03
61,11.63,1.13,28.50,0.23,-0.10,1.03
62,10.78,1.92,28.15,0.25,-0.11,1.01
63,10.41,0.79,28.53,0.23,-0.09,1.04
64,11.66,0.18,28.92,0.23,-0.10,1.03
65,11.42,0.06,28.78,0.23,-0.09,1.04
66,10.98,0.20,28.58,0.23,-0.09,1.04
67,11.04,0.84,28.67,0.23,-0.08,1.02
68,10.84,1.66,29.01,0.22,-0.09,1.04
69,11.18,2.41,29.04,0.22,-0.09,1.03
70,10.72,1.74,29.45,0.22,-0.09,1.03
71,10.60,1.57,29.47,0.21,-0.09,1.03
72,10.90,-0.08,29.53,0.21,-0.08,1.04
73,10.84,0.29,29.22,0.21,-0.09,1.05
74,10.72,-0.12,29.48,0.21,-0.09,1.04
75,10.73,-0.98,29.56,0.20,-0.09,1.05
76,10.64,-1.98,29.85,0.19,-0.09,1.05
77,10.15,-1.88,30.44,0.19,-0.08,1.05
78,10.31,-0.14,31.04,0.19,-0.09,1.05
79,10.92,-0.37,31.80,0.18,-0.08,1.05
80,10.41,0.79,32.08,0.19,-0.08,1.04
81,10.02,1.98,32.47,0.19,-0.07,1.04
82,10.03,0.38,32.98,0.17,-0.06,1.04
83,10.44,1.48,33.63,0.20,-0.07,1.05
84,10.63,1.65,33.97,0.21,-0.06,1.05
85,10.21,2.90,33.59,0.23,-0.06,1.05
86,9.71,2.84,33.24,0.22,-0.06,1.03
87,9.30,2.89,33.11,0.23,-0.06,1.03
88,9.16,2.72,32.98,0.23,-0.06,1.03
89,8.49,2.78,32.90,0.24,-0.05,1.02
90,8.58,2.92,32.87,0.23,-0.05,1.03
91,7.88,2.70,32.75,0.24,-0.05,1.02
92,8.08,3.27,32.21,0.24,-0.05,1.04
93,8.09,2.03,31.98,0.23,-0.06,1.03
94,8.38,2.23,31.86,0.23,-0.05,1.04
95,8.14,2.12,31.82,0.22,-0.06,1.05
96,8.38,0.89,32.21,0.21,-0.05,1.04
97,7.82,0.72,32.24,0.21,-0.05,1.03
98,7.07,1.66,32.18,0.22,-0.06,1.02
99,7.15,1.51,32.21,0.21,-0.06,1.01
100,6.76,0.29,32.40,0.20,-0.06,1.02
101,6.20,-0.05,32.72,0.20,-0.06,1.02
102,4.56,-0.46,32.43,0.22,-0.07,1.08
103,5.16,-3.54,32.49,0.21,-0.06,1.06
104,3.89,-2.37,32.11,0.22,-0.06,1.03
105,6.63,-0.96,32.29,0.22,-0.07,1.03
106,7.19,8.20,32.40,0.23,-0.07,0.97
107,5.37,2.08,32.47,0.19,-0.07,1.03
108,5.02,5.76,32.56,0.22,-0.07,1.03
109,5.28,3.89,32.35,0.21,-0.07,1.03
110,5.34,2.90,32.29,0.21,-0.07,1.04
111,5.24,-1.04,32.23,0.20,-0.08,1.04
112,4.29,-3.95,32.35,0.19,-0.07,1.03
113,2.60,-6.78,32.64,0.19,-0.07,1.03
114,2.05,-7.74,32.70,0.20,-0.08,1.01
115,1.69,-8.08,33.04,0.19,-0.09,1.01
116,1.71,-9.50,33.24,0.18,-0.08,1.01
117,1.73,-11.45,33.33,0.19,-0.09,1.03
118,2.92,-13.66,33.50,0.18,-0.09,1.03
119,3.86,-15.19,34.03,0.19,-0.09,1.04
120,4.82,-13.59,34.23,0.19,-0.09,1.03
121,5.27,-13.65,34.40,0.20,-0.09,1.02
122,5.01,-13.74,34.64,0.21,-0.09,1.02
123,4.17,-14.63,34.72,0.20,-0.09,1.01
124,4.03,-16.18,35.13,0.21,-0.09,1.01
125,3.65,-17.60,35.16,0.22,-0.08,1.02
126,3.89,-12.99,35.74,0.24,-0.09,1.00
127,2.55,-11.66,35.56,0.23,-0.09,1.03
128,3.22,-11.08,35.77,0.22,-0.09,1.05
129,3.68,-11.04,36.21,0.22,-0.08,1.05
130,4.26,-10.14,36.21,0.23,-0.09,1.05
131,5.22,-8.18,36.31,0.23,-0.09,1.05
132,5.63,-5.53,36.60,0.23,-0.09,1.04
133,5.34,-4.76,36.32,0.23,-0.09,1.05
134,4.75,-3.45,36.38,0.24,-0.09,1.05
135,5.05,-2.34,36.53,0.22,-0.10,1.06
136,5.01,-2.44,36.92,0.22,-0.10,1.07
137,5.22,-3.56,36.96,0.21,-0.08,1.08
138,5.57,-2.53,37.27,0.23,-0.09,1.07
139,6.02,-1.91,37.24,0.23,-0.09,1.07
140,6.55,-1.42,37.33,0.24,-0.09,1.09
141,6.49,0.84,37.27,0.24,-0.09,1.08
142,6.44,2.49,37.27,0.24,-0.08,1.08
143,7.30,2.93,37.16,0.24,-0.08,1.10
144,8.49,3.63,37.01,0.25,-0.08,1.10
145,9.33,4.12,36.81,0.26,-0.08,1.10
146,10.70,3.73,36.50,0.25,-0.08,1.10
147,11.45,2.87,36.26,0.25,-0.08,1.09
148,11.86,2.72,36.43,0.25,-0.08,1.09
149,11.63,2.32,36.50,0.25,-0.08,1.07
150,11.08,2.98,36.47,0.26,-0.08,1.06
151,10.52,4.93,36.17,0.26,-0.07,1.06
152,10.26,6.87,35.95,0.26,-0.07,1.07
153,10.63,8.49,35.60,0.26,-0.07,1.06
154,10.99,8.92,35.54,0.24,-0.07,1.07
155,11.16,8.17,35.54,0.24,-0.08,1.06
156,11.31,7.28,35.54,0.23,-0.08,1.06
157,11.28,7.10,35.39,0.24,-0.08,1.06
158,11.28,6.99,35.33,0.24,-0.08,1.05
159,11.36,6.47,35.13,0.23,-0.08,1.07
160,11.13,7.08,35.05,0.23,-0.07,1.06
161,11.60,5.98,35.19,0.21,-0.08,1.06
162,12.00,4.23,35.54,0.21,-0.08,1.06
163,11.94,4.37,35.69,0.21,-0.08,1.05
164,11.22,5.85,35.92,0.22,-0.07,1.05
165,10.64,7.24,36.03,0.23,-0.07,1.06
166,9.57,7.28,35.91,0.23,-0.07,1.05
167,10.18,10.12,36.00,0.24,-0.08,1.05
168,9.04,11.37,35.60,0.24,-0.06,1.05
169,8.64,13.34,35.59,0.24,-0.06,1.05
170,9.18,13.71,35.10,0.24,-0.07,1.06
171,9.79,13.27,34.87,0.23,-0.06,1.07
172,9.92,14.14,34.85,0.24,-0.06,1.07
173,10.12,12.89,34.72,0.23,-0.07,1.07
174,10.41,11.42,34.75,0.23,-0.06,1.06
175,9.59,10.06,34.70,0.22,-0.06,1.03
176,9.44,7.22,34.35,0.21,-0.06,1.01
177,8.95,10.06,34.15,0.23,-0.06,1.01
178,8.15,9.68,33.94,0.22,-0.06,1.02
179,6.84,9.16,33.73,0.22,-0.06,1.02
180,7.34,9.15,33.60,0.20,-0.07,1.02
181,6.98,8.69,33.54,0.20,-0.06,1.03
182,7.45,6.99,33.76,0.18,-0.06,1.03
183,7.16,5.42,33.82,0.18,-0.07,1.02
184,6.67,4.49,33.91,0.18,-0.06,1.01
185,5.65,2.64,33.85,0.18,-0.07,1.01
186,4.35,1.22,33.74,0.19,-0.07,1.00
187,3.62,-0.24,33.79,0.17,-0.06,1.01
188,2.96,-1.82,33.71,0.18,-0.07,1.00
189,2.23,-2.55,33.88,0.17,-0.07,1.02
190,1.95,-3.37,33.88,0.16,-0.07,1.04
191,4.87,-6.81,33.89,0.15,-0.08,1.04
192,-0.64,-7.33,34.17,0.14,-0.06,1.08
193,1.57,-5.73,34.99,0.16,-0.06,1.06
194,1.97,-6.27,34.93,0.17,-0.06,1.06
195,2.84,-5.92,35.08,0.17,-0.08,1.04
196,2.49,-7.21,35.45,0.16,-0.07,1.04
197,1.98,-7.05,35.42,0.17,-0.07,1.04
198,1.25,-6.73,35.82,0.18,-0.08,1.04
199,1.21,-5.79,35.71,0.19,-0.07,1.05
200,1.27,-4.18,36.00,0.20,-0.07,1.06
201,0.70,-2.29,35.83,0.19,-0.08,1.05
202,0.78,-0.60,35.94,0.20,-0.07,1.05
203,1.10,0.27,36.15,0.19,-0.08,1.06
204,0.90,0.76,36.20,0.20,-0.07,1.05
205,0.79,0.98,36.43,0.20,-0.08,1.04
206,0.99,-0.56,36.06,0.19,-0.08,1.04
207,1.13,-3.57,36.12,0.19,-0.09,1.05
208,1.54,-5.98,35.60,0.19,-0.09,1.03
209,1.71,-10.03,35.27,0.19,-0.09,1.03
210,2.37,-11.80,35.30,0.19,-0.08,1.02
211,2.95,-14.00,35.22,0.18,-0.10,1.03
212,2.82,-15.53,35.05,0.18,-0.09,1.02
213,2.55,-14.24,35.39,0.17,-0.10,1.04
214,2.61,-16.15,35.88,0.16,-0.09,1.03
215,2.92,-17.63,36.37,0.17,-0.10,1.03
216,3.22,-18.00,36.40,0.18,-0.09,1.04
217,3.28,-18.46,36.84,0.18,-0.09,1.04
218,3.04,-18.27,37.15,0.17,-0.10,1.04
219,2.61,-18.64,37.62,0.17,-0.10,1.03
220,2.76,-19.48,37.56,0.18,-0.10,1.04
221,2.26,-19.05,37.60,0.19,-0.10,1.04
222,2.18,-19.62,37.56,0.18,-0.10,1.04
223,3.53,-19.65,37.73,0.18,-0.10,1.04
224,4.06,-19.50,38.08,0.19,-0.11,1.05
225,4.26,-18.81,38.34,0.20,-0.11,1.04
226,4.32,-18.17,38.49,0.18,-0.11,1.06
227,3.94,-18.17,38.96,0.19,-0.10,1.05
228,4.26,-17.80,39.34,0.20,-0.11,1.03
229,4.78,-17.94,39.59,0.19,-0.12,1.02
230,5.27,-18.66,39.83,0.19,-0.12,1.04
231,5.48,-19.11,40.31,0.19,-0.11,1.04
232,5.33,-19.11,40.90,0.19,-0.11,1.04
233,4.56,-17.31,41.22,0.21,-0.10,1.03
234,4.56,-15.60,41.56,0.22,-0.11,1.02
235,5.30,-15.82,41.62,0.21,-0.10,1.03
236,5.97,-16.44,41.89,0.22,-0.10,1.03
237,6.84,-16.66,41.98,0.24,-0.11,1.03
238,6.44,-16.55,41.89,0.25,-0.11,1.03
239,7.05,-14.63,41.74,0.25,-0.11,1.03
240,6.37,-15.42,41.69,0.24,-0.11,1.03
241,7.28,-14.31,41.60,0.26,-0.11,1.03
242,6.96,-13.68,41.37,0.27,-0.11,1.03
243,7.39,-11.91,41.48,0.28,-0.11,1.02
244,7.31,-12.03,41.36,0.27,-0.10,1.03
245,7.59,-10.90,41.22,0.28,-0.10,1.02
246,7.77,-9.91,40.82,0.29,-0.10,1.02
247,7.47,-10.49,40.35,0.29,-0.10,1.02
248,7.86,-10.11,40.38,0.28,-0.10,1.01
249,7.74,-9.59,40.29,0.28,-0.10,1.01
250,8.14,-7.86,40.40,0.28,-0.10,1.01
251,7.59,-7.21,40.27,0.28,-0.10,1.01
252,7.83,-6.52,40.32,0.28,-0.10,1.02
253,7.86,-5.21,40.15,0.29,-0.10,1.02
254,7.77,-5.50,39.94,0.27,-0.10,1.02
255,8.46,-5.21,39.68,0.29,-0.10,1.02
256,8.75,-5.33,39.59,0.28,-0.09,1.02
257,8.99,-5.97,39.44,0.27,-0.10,1.02
258,8.66,-5.76,39.40,0.26,-0.09,1.01
259,7.76,-5.65,39.53,0.26,-0.10,1.01
260,6.99,-5.33,39.92,0.26,-0.10,1.01
261,5.89,-4.70,39.73,0.27,-0.09,1.01
262,5.94,-4.09,39.86,0.27,-0.10,1.02
263,6.14,-4.23,39.91,0.27,-0.10,1.03
264,6.18,-2.49,39.73,0.27,-0.10,1.03
265,6.92,-1.79,39.48,0.29,-0.10,1.03
266,6.79,-1.13,39.19,0.27,-0.09,1.03
267,7.59,2.17,39.91,0.28,-0.10,1.02
268,4.98,-0.70,39.28,0.26,-0.10,1.06
269,4.90,-6.69,39.31,0.26,-0.10,1.05
270,5.47,-7.25,39.24,0.28,-0.11,1.03
271,5.91,-6.23,39.21,0.28,-0.11,1.02
272,5.66,-1.18,39.19,0.28,-0.11,1.03
273,5.48,2.02,39.37,0.27,-0.11,1.03
274,5.51,2.12,39.63,0.26,-0.11,1.04
275,5.48,1.62,39.66,0.26,-0.11,1.02
276,5.45,3.16,39.68,0.26,-0.10,1.02
277,4.84,3.85,39.79,0.26,-0.11,1.02
278,4.50,4.12,39.91,0.25,-0.11,1.01
279,4.05,0.95,39.69,0.25,-0.11,1.02
280,4.60,-0.02,39.71,0.25,-0.11,1.01
281,4.15,-0.05,39.91,0.25,-0.11,1.02
282,3.36,-0.46,40.23,0.25,-0.11,1.02
283,2.87,-0.50,40.63,0.25,-0.11,1.00
284,2.55,-0.63,40.90,0.25,-0.11,1.01
285,2.15,0.73,40.63,0.27,-0.11,1.01
286,2.11,1.30,40.43,0.26,-0.11,1.01
287,1.71,0.75,40.46,0.25,-0.11,1.01
288,2.44,1.04,40.72,0.25,-0.13,1.01
289,2.02,0.27,41.01,0.25,-0.12,1.00
290,2.06,-1.34,41.13,0.24,-0.10,1.03
291,2.52,-2.70,41.01,0.26,-0.12,0.99
292,2.81,-2.89,41.01,0.26,-0.10,0.99
293,1.89,-3.50,41.02,0.25,-0.11,1.01
294,1.97,-2.41,41.04,0.26,-0.11,1.01
295,0.81,-1.47,41.30,0.25,-0.12,1.00
296,-0.17,-0.79,41.28,0.27,-0.12,1.01
297,-0.44,0.40,41.18,0.27,-0.12,0.99
298,0.14,1.04,41.11,0.26,-0.12,1.00
299,-0.18,-0.92,40.89,0.26,-0.13,1.02
300,0.35,-1.31,40.73,0.26,-0.13,1.02
301,-0.05,-1.54,40.73,0.27,-0.12,1.02
302,-0.43,-2.47,40.67,0.27,-0.12,1.00
303,-0.67,-2.82,40.47,0.27,-0.13,1.01
304,-1.15,-4.00,40.35,0.27,-0.13,1.00
305,-1.28,-4.17,40.17,0.29,-0.14,1.00
306,-0.43,-3.94,39.53,0.28,-0.13,1.01
307,-0.34,-3.74,39.25,0.27,-0.13,1.02
308,-0.12,-2.95,39.16,0.28,-0.13,1.01
309,-0.52,-2.47,39.22,0.27,-0.14,1.03
310,-0.35,-2.44,39.36,0.26,-0.14,1.02
311,-0.55,-3.44,39.31,0.27,-0.14,1.00
312,-1.10,-5.48,39.11,0.26,-0.13,1.00
313,-1.11,-6.53,38.76,0.28,-0.13,1.00
314,-1.08,-7.95,38.47,0.27,-0.14,1.01
315,-1.33,-7.98,38.15,0.28,-0.14,1.02
316,-1.69,-7.80,37.62,0.28,-0.14,1.01
317,-1.48,-7.25,37.44,0.27,-0.14,1.03
318,-1.92,-7.95,37.59,0.25,-0.14,1.01
319,-2.26,-8.08,37.98,0.25,-0.15,1.02
320,-2.12,-7.83,37.91,0.25,-0.15,1.02
321,-2.87,-8.73,38.14,0.25,-0.14,1.02
322,-2.02,-8.72,38.00,0.25,-0.15,1.01
323,-1.80,-11.42,37.82,0.26,-0.15,1.01
324,-2.21,-12.99,37.86,0.25,-0.14,1.02
325,-3.15,-12.79,37.71,0.26,-0.15,1.01
326,-4.03,-12.60,37.63,0.25,-0.15,1.01
327,-4.53,-12.05,38.02,0.25,-0.16,1.00
328,-4.79,-10.90,38.55,0.24,-0.16,1.00
329,-3.80,-10.11,38.66,0.25,-0.16,0.99
330,-5.85,-12.15,38.67,0.25,-0.15,1.02
331,-4.70,-10.98,38.93,0.25,-0.16,1.01
332,-4.66,-13.66,38.81,0.25,-0.16,1.02
333,-3.92,-13.63,38.99,0.27,-0.16,1.00
334,-4.11,-15.15,38.90,0.26,-0.16,1.00
335,-3.98,-16.09,38.78,0.26,-0.16,1.00
336,-3.86,-16.58,38.99,0.26,-0.16,1.01
337,-5.07,-18.00,38.75,0.25,-0.16,1.01
338,-4.66,-16.31,39.45,0.26,-0.16,0.98
339,-5.74,-16.85,39.25,0.26,-0.16,1.01
340,-5.56,-15.76,39.74,0.26,-0.17,1.00
341,-4.89,-17.40,39.62,0.25,-0.18,1.01
342,-4.41,-17.82,39.71,0.27,-0.18,1.01
343,-3.80,-17.85,39.98,0.25,-0.18,1.00
344,-2.96,-17.85,40.66,0.25,-0.18,1.00
345,-2.70,-19.07,40.46,0.25,-0.19,1.00
346,-3.04,-21.19,40.27,0.26,-0.19,0.98
347,-2.63,-21.76,40.82,0.25,-0.19,1.00
348,-1.66,-20.06,41.24,0.25,-0.20,1.00
349,-2.81,-18.93,41.83,0.27,-0.19,1.01
350,-3.44,-20.43,42.34,0.26,-0.20,1.01
351,-3.56,-19.37,43.08,0.28,-0.20,1.01
352,-3.97,-16.14,43.28,0.31,-0.19,1.00
353,-3.97,-11.33,43.44,0.34,-0.19,1.01
354,-4.08,-9.57,42.99,0.34,-0.19,1.03
355,-3.69,-8.18,43.16,0.34,-0.20,1.03
356,-2.63,-6.60,42.99,0.35,-0.20,1.04
357,-1.92,-2.50,42.35,0.40,-0.20,1.05
358,-1.08,0.15,41.13,0.42,-0.20,1.05
359,-0.37,2.03,40.09,0.41,-0.20,1.07
360,-0.90,0.84,39.33,0.41,-0.19,1.06
361,0.12,2.20,38.87,0.44,-0.20,1.05
362,1.13,3.36,37.39,0.47,-0.20,1.04
363,2.00,5.21,35.56,0.49,-0.20,1.04
364,3.16,6.99,33.59,0.52,-0.20,1.03
365,3.19,6.27,31.65,0.52,-0.19,1.03
366,3.34,5.53,29.60,0.51,-0.20,1.03
367,2.50,4.81,27.56,0.51,-0.21,1.02
368,1.86,4.41,25.69,0.53,-0.20,1.03
369,1.37,4.72,23.34,0.54,-0.20,1.03
370,1.76,4.93,20.66,0.54,-0.20,1.05
371,2.56,5.47,18.43,0.53,-0.18,1.05
372,3.05,7.02,16.11,0.54,-0.19,1.04
373,3.44,8.78,13.80,0.53,-0.20,1.04
374,3.39,9.95,11.51,0.52,-0.20,1.05
375,3.79,11.13,10.05,0.49,-0.19,1.03
376,4.12,11.74,8.49,0.47,-0.20,1.04
377,4.58,12.63,7.24,0.46,-0.20,1.03
378,5.63,14.09,6.53,0.44,-0.20,1.05
379,5.37,7.79,4.35,0.41,-0.20,1.03
380,3.80,12.00,2.81,0.43,-0.20,0.99
381,2.67,28.12,2.75,0.45,-0.20,0.96
382,2.92,25.33,0.93,0.40,-0.19,0.98
383,4.60,20.49,-0.78,0.40,-0.20,0.99
384,4.85,10.03,-2.92,0.38,-0.19,1.00
385,5.73,-0.03,-4.58,0.38,-0.19,0.98
386,6.00,-4.67,-5.97,0.37,-0.18,0.96
387,5.63,-6.37,-6.67,0.35,-0.19,0.97
388,3.62,-6.95,-7.22,0.33,-0.18,0.97
389,2.66,-2.27,-7.34,0.34,-0.18,0.97
390,2.63,4.66,-7.22,0.33,-0.18,0.97
391,2.61,4.55,-7.57,0.31,-0.18,0.99
392,2.18,0.17,-7.65,0.29,-0.18,1.00
393,1.85,-3.48,-8.02,0.29,-0.18,0.99
394,1.97,-7.04,-8.37,0.29,-0.17,0.99
395,2.37,-8.47,-8.41,0.27,-0.18,1.01
396,2.29,-11.10,-8.41,0.27,-0.18,1.00
397,3.22,-11.01,-8.46,0.26,-0.17,1.00
398,1.66,-11.48,-8.47,0.26,-0.18,1.01
399,0.44,-5.27,-7.94,0.27,-0.17,1.00
400,-0.11,-3.18,-7.83,0.27,-0.17,1.00
401,-0.06,-3.28,-7.63,0.25,-0.18,1.02
402,0.41,-3.22,-7.66,0.26,-0.18,1.02
403,0.98,-3.79,-7.51,0.26,-0.18,1.02
404,2.11,-6.70,-7.54,0.25,-0.18,1.04
405,2.64,-9.22,-7.62,0.25,-0.19,1.04
406,3.28,-10.08,-7.51,0.26,-0.18,1.04
407,4.09,-9.53,-7.21,0.26,-0.18,1.03
408,4.08,-8.73,-7.07,0.26,-0.18,1.04
409,4.38,-5.88,-6.63,0.25,-0.18,1.04
410,4.05,-2.53,-6.09,0.27,-0.18,1.03
411,3.73,-0.60,-5.98,0.27,-0.17,1.03
412,3.63,0.37,-5.79,0.27,-0.18,1.02
413,3.83,0.85,-5.92,0.27,-0.17,1.03
414,3.77,1.79,-5.79,0.27,-0.18,1.03
415,4.21,0.63,-5.57,0.26,-0.17,1.03
416,4.90,-0.90,-5.44,0.26,-0.17,1.03
417,5.54,-3.10,-5.69,0.27,-0.17,1.03
418,5.59,-4.53,-5.53,0.26,-0.17,1.01
419,5.59,-4.31,-5.53,0.27,-0.17,1.01
420,5.27,-3.05,-5.36,0.27,-0.17,1.01
421,5.15,-2.09,-4.98,0.26,-0.17,1.02
422,5.33,-0.52,-4.85,0.26,-0.17,1.01
423,5.31,0.76,-4.44,0.27,-0.17,1.01
424,5.45,0.81,-4.11,0.27,-0.17,1.01
425,5.37,0.14,-4.03,0.27,-0.17,1.00
426,5.31,-0.81,-4.21,0.29,-0.17,1.00
427,5.19,-1.48,-4.18,0.28,-0.17,0.99
428,4.85,-2.92,-4.09,0.27,-0.17,1.00
429,4.17,-3.47,-4.11,0.27,-0.17,1.00
430,3.82,-3.28,-3.89,0.28,-0.17,1.00
431,3.16,-2.44,-4.03,0.29,-0.17,1.00
432,2.61,-1.59,-4.26,0.30,-0.17,1.00
