,gyro_x,gyro_y,gyro_z,acce_x,acce_y,acce_z
0,-4.64,28.27,1.04,0.24,-0.19,1.13
1,1.48,16.67,0.85,0.17,-0.21,1.03
2,-2.23,-4.70,-1.36,0.12,-0.22,1.05
3,-4.31,0.43,-0.76,0.19,-0.21,0.99
4,-1.22,11.18,-0.24,0.18,-0.21,1.02
5,-1.94,14.79,0.81,0.16,-0.20,1.06
6,-5.04,13.50,1.69,0.12,-0.22,0.99
7,-0.02,21.45,2.21,0.11,-0.21,1.09
8,3.40,20.82,1.91,0.13,-0.24,1.09
9,7.57,10.56,1.36,0.12,-0.23,1.02
10,6.15,5.97,0.76,0.11,-0.23,1.04
11,4.03,2.82,0.76,0.12,-0.23,1.01
12,6.75,-1.10,0.46,0.10,-0.22,0.96
13,-2.11,-7.30,-0.69,0.15,-0.22,1.12
14,6.95,-4.82,0.34,0.19,-0.22,1.00
15,3.68,-15.63,-1.85,0.10,-0.22,1.06
16,5.13,-19.05,-0.93,0.12,-0.23,1.07
17,5.08,-16.92,0.40,0.12,-0.23,1.07
18,6.46,-16.95,1.07,0.11,-0.23,1.08
19,6.18,-19.10,1.33,0.14,-0.23,1.08
20,6.76,-17.33,1.53,0.16,-0.21,1.07
21,6.53,-14.69,2.14,0.17,-0.21,1.10
22,6.53,-12.40,2.43,0.18,-0.20,1.09
23,7.15,-11.68,2.89,0.18,-0.20,1.11
24,8.09,-8.95,3.62,0.18,-0.20,1.11
25,8.85,-7.34,4.23,0.20,-0.20,1.10
26,9.15,-5.88,4.55,0.21,-0.20,1.11
27,8.78,-4.82,4.17,0.22,-0.19,1.08
28,8.35,-3.98,3.83,0.21,-0.19,1.07
29,8.11,-3.94,3.51,0.21,-0.19,1.05
30,6.81,-6.03,3.33,0.21,-0.19,1.04
31,5.82,-7.88,2.87,0.21,-0.18,1.03
32,4.99,-9.85,2.15,0.22,-0.18,1.03
33,4.56,-12.06,1.47,0.23,-0.18,1.03
34,3.89,-13.22,0.70,0.24,-0.18,1.04
35,3.31,-13.24,0.08,0.25,-0.17,1.05
36,2.75,-12.75,-0.60,0.25,-0.17,1.05
37,2.31,-11.69,-0.82,0.25,-0.18,1.08
38,2.08,-9.77,-0.56,0.23,-0.18,1.08
39,1.50,-7.31,-0.27,0.24,-0.19,1.08
40,0.76,-4.47,0.29,0.23,-0.19,1.09
41,0.17,-1.22,0.96,0.23,-0.19,1.09
42,0.60,-0.73,1.25,0.23,-0.20,1.09
43,0.14,1.34,2.00,0.22,-0.20,1.09
44,-0.14,1.53,1.97,0.23,-0.20,1.06
45,2.05,0.78,1.66,0.22,-0.21,1.08
46,2.02,0.46,1.97,0.21,-0.21,1.08
47,0.79,2.23,2.15,0.22,-0.20,1.09
48,2.70,3.21,2.41,0.21,-0.20,1.07
49,6.15,-0.46,1.89,0.20,-0.20,1.00
50,2.43,-0.43,1.86,0.22,-0.19,1.01
51,1.68,-1.62,2.23,0.23,-0.19,1.03
52,3.54,-3.07,2.00,0.21,-0.19,1.08
53,2.35,-9.56,1.16,0.22,-0.18,1.09
54,3.36,-11.18,0.76,0.23,-0.18,1.09
55,5.31,-7.13,0.67,0.25,-0.18,1.07
56,9.34,-6.15,0.40,0.23,-0.17,1.07
57,7.97,-8.73,0.06,0.24,-0.18,1.00
58,6.35,-3.94,0.24,0.22,-0.17,0.99
59,4.72,0.75,0.50,0.23,-0.16,0.98
60,5.39,1.80,0.63,0.22,-0.16,0.98
61,6.92,-0.18,0.63,0.22,-0.16,0.98
62,6.53,-3.48,0.17,0.22,-0.15,0.97
63,4.63,-5.60,-0.34,0.23,-0.15,0.97
64,4.29,-4.67,-0.72,0.24,-0.15,0.94
65,3.33,-3.18,-0.87,0.23,-0.15,0.94
66,2.78,0.55,-0.53,0.24,-0.15,0.94
67,2.20,3.74,-0.38,0.23,-0.14,0.95
68,1.63,5.02,-0.18,0.22,-0.15,0.95
69,1.10,4.85,-0.09,0.22,-0.14,0.96
70,1.16,4.02,0.02,0.22,-0.14,0.96
71,1.24,3.13,-0.35,0.21,-0.15,0.97
72,1.08,2.89,-0.67,0.21,-0.15,0.96
73,0.98,2.85,-0.38,0.21,-0.15,0.98
74,0.99,3.02,0.08,0.20,-0.15,0.99
75,0.96,3.47,0.24,0.20,-0.15,1.00
76,1.16,2.67,0.43,0.20,-0.15,1.01
77,1.40,2.12,0.61,0.21,-0.15,1.01
78,1.48,2.03,0.66,0.21,-0.16,1.01
79,1.65,2.09,1.02,0.21,-0.15,1.02
80,1.65,2.38,0.87,0.22,-0.15,1.02
81,1.34,3.30,0.84,0.23,-0.16,1.02
82,1.45,3.37,0.40,0.23,-0.15,1.03
83,1.59,3.54,-0.26,0.23,-0.15,1.04
84,1.92,4.12,-0.44,0.22,-0.16,1.04
85,2.31,4.82,-0.40,0.22,-0.16,1.04
86,2.56,5.56,-0.63,0.21,-0.16,1.04
87,2.75,6.38,-0.47,0.21,-0.15,1.05
88,2.23,6.63,-0.24,0.19,-0.16,1.04
89,2.24,6.31,0.08,0.19,-0.16,1.03
90,1.73,5.34,0.23,0.18,-0.17,1.04
91,1.68,4.27,0.53,0.18,-0.16,1.03
92,1.48,3.97,0.76,0.19,-0.17,1.04
93,1.39,2.90,0.75,0.18,-0.16,1.04
94,1.44,2.26,1.28,0.18,-0.17,1.05
95,1.50,2.41,1.42,0.18,-0.17,1.05
96,1.39,2.15,1.66,0.18,-0.17,1.04
97,1.22,2.40,1.97,0.19,-0.17,1.05
98,1.25,2.56,2.09,0.19,-0.17,1.05
99,1.50,3.21,2.17,0.20,-0.16,1.04
100,1.94,2.70,2.24,0.19,-0.17,1.05
101,2.09,2.49,2.18,0.19,-0.16,1.05
102,1.85,1.48,2.18,0.19,-0.16,1.05
103,2.18,0.52,2.29,0.20,-0.16,1.03
104,2.34,-0.95,1.68,0.20,-0.16,1.03
105,2.31,-0.99,1.28,0.20,-0.16,1.04
106,2.37,-2.47,0.82,0.21,-0.17,1.03
107,2.66,-3.51,0.44,0.21,-0.17,1.03
108,1.83,-3.54,0.73,0.19,-0.17,1.03
109,1.85,-4.12,0.89,0.19,-0.17,1.02
110,1.68,-4.58,1.31,0.20,-0.17,1.02
111,1.27,-4.24,1.48,0.20,-0.17,1.02
112,0.64,-2.82,1.73,0.20,-0.17,1.02
113,0.53,-2.49,1.59,0.20,-0.17,1.03
114,0.66,-3.54,1.68,0.20,-0.16,1.03
115,0.34,-3.08,1.36,0.21,-0.16,1.03
116,0.02,-0.81,1.91,0.20,-0.17,1.05
117,0.20,-1.76,1.85,0.18,-0.17,1.06
118,1.08,-3.30,1.65,0.19,-0.16,1.06
119,2.08,-2.56,1.83,0.19,-0.17,1.05
120,2.56,-1.89,1.86,0.21,-0.18,1.05
121,2.50,-0.76,2.05,0.21,-0.17,1.04
122,1.85,0.38,2.08,0.21,-0.17,1.03
123,2.08,-0.55,1.65,0.21,-0.18,1.04
124,2.31,-4.21,1.18,0.20,-0.18,1.04
125,2.66,-5.02,0.98,0.20,-0.18,1.05
126,2.60,-4.64,0.78,0.21,-0.18,1.05
127,2.60,-3.53,1.25,0.19,-0.18,1.05
128,2.69,-2.41,1.71,0.19,-0.18,1.05
129,2.66,-1.18,2.23,0.19,-0.18,1.04
130,2.63,-0.12,2.49,0.18,-0.18,1.04
131,2.21,0.44,2.99,0.19,-0.18,1.04
132,2.34,0.40,3.13,0.19,-0.17,1.04
133,2.70,0.56,3.53,0.19,-0.17,1.04
134,2.81,-0.29,3.40,0.20,-0.17,1.04
135,3.27,-1.16,3.05,0.21,-0.17,1.03
136,3.28,-2.34,2.70,0.21,-0.16,1.03
137,3.54,-3.86,2.50,0.21,-0.17,1.03
138,3.54,-4.32,2.11,0.22,-0.16,1.04
139,3.60,-3.50,1.88,0.22,-0.16,1.04
140,3.56,-2.56,1.73,0.22,-0.16,1.03
141,3.73,-1.80,1.60,0.23,-0.16,1.03
142,3.85,-1.18,1.57,0.22,-0.16,1.02
143,3.88,-0.96,1.85,0.22,-0.16,1.02
144,3.48,-0.40,1.76,0.22,-0.16,1.02
145,3.18,-0.08,1.92,0.22,-0.15,1.00
146,2.78,-0.06,1.68,0.22,-0.16,1.00
147,2.32,-0.37,1.62,0.22,-0.16,1.01
148,1.92,0.67,1.66,0.23,-0.15,1.02
149,1.50,1.80,1.50,0.23,-0.15,1.03
150,1.92,2.00,1.15,0.24,-0.15,1.03
151,2.35,2.89,1.15,0.23,-0.16,1.03
152,2.20,3.83,0.76,0.23,-0.15,1.04
153,2.40,3.89,0.50,0.23,-0.15,1.03
154,2.53,3.53,0.14,0.21,-0.15,1.03
155,2.70,2.52,0.34,0.20,-0.15,1.04
156,2.82,3.15,0.46,0.21,-0.15,1.02
157,2.67,3.74,0.75,0.20,-0.15,1.02
158,2.31,3.73,0.87,0.20,-0.15,1.02
159,2.09,3.68,0.89,0.20,-0.15,1.01
160,1.85,3.85,0.99,0.21,-0.15,1.01
161,1.56,3.65,1.05,0.20,-0.15,1.01
162,1.31,2.98,1.31,0.20,-0.15,1.01
163,1.10,1.89,1.40,0.19,-0.15,1.02
164,1.01,1.42,1.57,0.20,-0.14,1.01
165,1.19,1.01,1.36,0.20,-0.14,1.01
166,1.40,0.79,1.27,0.21,-0.14,1.01
167,1.27,0.38,1.08,0.21,-0.14,1.02
168,1.39,-0.99,0.75,0.21,-0.15,1.01
169,1.37,-1.98,0.35,0.22,-0.15,1.02
170,1.18,-1.66,0.15,0.21,-0.14,1.02
171,1.15,-1.40,0.06,0.21,-0.15,1.03
172,1.01,-1.37,0.18,0.21,-0.14,1.03
173,1.07,-1.21,0.18,0.21,-0.15,1.03
174,1.16,-0.69,0.11,0.21,-0.15,1.04
175,0.96,0.12,0.15,0.21,-0.16,1.04
176,0.64,0.34,0.26,0.21,-0.16,1.04
177,0.92,1.05,0.38,0.22,-0.15,1.05
178,0.96,2.78,0.81,0.21,-0.14,1.05
179,1.44,3.54,0.55,0.21,-0.15,1.05
180,1.34,3.44,0.73,0.20,-0.15,1.04
181,1.13,3.15,0.50,0.20,-0.14,1.04
182,1.11,3.15,0.41,0.20,-0.15,1.04
183,1.07,2.84,0.41,0.20,-0.15,1.03
184,1.04,2.96,0.53,0.20,-0.14,1.03
185,1.10,3.39,0.63,0.21,-0.14,1.03
186,1.07,3.88,0.53,0.20,-0.14,1.04
187,0.98,3.73,0.37,0.19,-0.14,1.03
188,1.02,4.02,0.81,0.19,-0.14,1.02
189,0.98,4.18,0.56,0.20,-0.14,1.01
190,0.73,3.53,0.06,0.20,-0.14,1.02
191,0.64,2.47,-0.26,0.19,-0.15,1.01
192,0.29,1.21,-0.46,0.18,-0.15,1.00
193,0.18,0.50,-0.21,0.18,-0.15,1.00
194,0.09,0.12,-0.38,0.17,-0.15,1.00
195,-0.23,-0.76,-0.03,0.16,-0.14,1.01
196,-0.26,-0.79,0.17,0.17,-0.15,1.00
197,-0.09,-0.52,0.76,0.16,-0.15,1.02
198,-0.03,-0.53,0.85,0.17,-0.15,1.01
199,-0.23,-0.75,1.02,0.17,-0.15,1.02
200,0.20,-1.50,1.22,0.16,-0.15,1.02
201,0.26,-1.65,1.74,0.16,-0.15,1.04
202,0.53,-1.94,2.49,0.16,-0.15,1.04
203,0.87,-2.03,2.66,0.17,-0.16,1.04
204,0.93,-2.14,2.75,0.17,-0.15,1.03
205,0.93,-2.70,2.98,0.18,-0.15,1.03
206,0.84,-2.64,3.04,0.18,-0.15,1.03
207,0.85,-2.37,2.84,0.19,-0.15,1.03
208,1.05,-2.55,2.76,0.19,-0.15,1.03
209,1.15,-2.95,2.70,0.20,-0.15,1.03
210,0.95,-2.89,2.89,0.20,-0.15,1.03
211,1.01,-2.73,3.08,0.20,-0.15,1.03
212,1.08,-2.24,2.93,0.20,-0.15,1.03
213,1.28,-1.54,2.99,0.20,-0.15,1.02
214,1.05,-0.49,2.87,0.20,-0.15,1.03
215,0.98,0.03,3.10,0.19,-0.15,1.03
216,0.89,0.67,3.07,0.20,-0.15,1.03
217,0.95,0.73,3.19,0.20,-0.14,1.03
218,0.85,0.64,3.11,0.19,-0.14,1.02
219,0.82,-0.29,2.92,0.19,-0.15,1.02
220,0.76,-0.55,2.98,0.20,-0.15,1.04
221,0.98,-0.76,3.16,0.20,-0.15,1.04
222,0.98,-0.93,3.16,0.20,-0.15,1.03
223,1.07,-0.66,3.08,0.20,-0.14,1.03
224,1.10,-0.32,3.08,0.21,-0.15,1.04
225,0.89,-0.02,2.99,0.20,-0.15,1.04
226,1.08,0.15,3.28,0.20,-0.16,1.04
227,1.25,0.38,3.07,0.20,-0.15,1.03
228,1.07,0.76,3.21,0.20,-0.16,1.05
229,1.45,1.02,3.18,0.21,-0.16,1.05
230,1.47,1.76,3.01,0.21,-0.15,1.04
231,1.76,1.59,2.90,0.20,-0.14,1.05
232,1.76,1.04,2.99,0.21,-0.15,1.04
233,2.00,0.50,2.82,0.20,-0.15,1.04
234,2.08,0.35,2.84,0.21,-0.15,1.04
235,1.97,0.06,2.81,0.21,-0.15,1.03
236,1.69,-0.20,2.60,0.20,-0.14,1.02
237,1.48,-0.72,2.52,0.21,-0.14,1.02
238,1.22,-1.01,2.32,0.22,-0.15,1.01
239,1.04,-0.60,2.12,0.22,-0.14,1.02
240,1.02,-0.79,1.83,0.22,-0.14,1.02
241,0.69,-0.84,1.54,0.22,-0.14,1.04
242,0.26,-1.15,1.24,0.22,-0.14,1.04
243,0.37,-2.09,1.02,0.22,-0.14,1.04
244,0.00,-1.91,0.82,0.21,-0.14,1.05
245,0.00,-0.85,1.11,0.22,-0.14,1.05
246,-0.43,-0.32,1.10,0.22,-0.15,1.04
247,-0.27,-0.52,0.98,0.22,-0.15,1.05
248,0.00,-0.14,0.72,0.21,-0.16,1.05
249,0.29,-0.03,0.70,0.21,-0.15,1.05
250,0.00,-1.15,0.85,0.20,-0.14,1.03
251,-0.38,-0.76,0.92,0.20,-0.15,1.03
252,-0.89,-0.49,1.16,0.20,-0.14,1.03
253,-0.52,-1.10,1.13,0.20,-0.14,1.04
254,-0.38,-2.47,0.70,0.20,-0.15,1.02
255,-0.14,-1.40,0.66,0.21,-0.15,1.02
256,-0.50,-0.95,0.56,0.21,-0.14,1.03
257,-0.38,-1.74,0.50,0.20,-0.15,1.04
258,-0.09,-2.06,0.12,0.21,-0.15,1.03
259,-0.05,-2.37,-0.05,0.21,-0.15,1.03
260,-0.12,-2.32,-0.18,0.21,-0.15,1.03
261,-0.38,-1.91,-0.21,0.21,-0.15,1.03
262,-0.27,-1.71,-0.09,0.20,-0.15,1.04
263,-0.41,-1.57,0.12,0.19,-0.16,1.04
264,-0.60,-1.10,0.35,0.20,-0.15,1.03
265,-0.46,-0.34,0.40,0.20,-0.15,1.03
266,-0.32,-0.47,0.37,0.21,-0.16,1.05
267,-0.12,-0.58,0.06,0.21,-0.16,1.04
268,0.20,0.00,-0.18,0.21,-0.16,1.04
269,0.35,-0.66,-0.38,0.20,-0.16,1.05
270,0.37,-1.54,-0.37,0.20,-0.16,1.05
271,0.41,-1.33,-0.67,0.20,-0.16,1.04
272,0.60,-1.04,-0.40,0.21,-0.16,1.05
273,0.66,-0.64,-0.37,0.20,-0.16,1.05
274,0.75,-0.18,-0.37,0.20,-0.16,1.04
275,0.81,1.07,-0.03,0.20,-0.17,1.05
276,0.90,1.80,0.34,0.19,-0.16,1.05
277,1.13,1.83,0.44,0.19,-0.16,1.04
278,1.11,1.47,0.69,0.18,-0.16,1.03
279,1.22,1.39,1.27,0.18,-0.16,1.02
280,1.13,0.64,1.45,0.19,-0.15,1.02
281,1.25,-0.11,1.57,0.19,-0.15,1.03
282,1.44,0.17,1.74,0.20,-0.15,1.02
283,1.39,0.09,1.54,0.20,-0.15,1.02
284,1.54,0.05,1.68,0.21,-0.15,1.02
285,1.08,-0.18,1.63,0.20,-0.14,1.01
286,0.93,-0.47,1.76,0.19,-0.14,1.02
287,0.92,-0.66,1.63,0.20,-0.14,1.02
288,0.60,-0.35,1.82,0.21,-0.14,1.02
289,0.20,-0.06,1.63,0.22,-0.13,1.03
290,-0.06,0.05,1.44,0.22,-0.14,1.02
291,0.00,0.21,1.27,0.21,-0.13,1.02
292,-0.08,0.78,1.34,0.21,-0.13,1.02
293,-0.18,0.43,1.24,0.20,-0.14,1.03
294,-0.24,0.99,1.31,0.21,-0.14,1.02
295,-0.05,1.71,1.08,0.22,-0.14,1.03
296,-0.17,1.74,1.01,0.21,-0.14,1.02
297,-0.23,1.63,1.07,0.21,-0.15,1.03
298,-0.37,0.87,0.98,0.21,-0.15,1.02
299,0.26,0.70,0.95,0.20,-0.15,1.03
300,0.06,0.96,0.95,0.21,-0.15,1.02
301,-0.20,1.28,1.05,0.20,-0.15,1.03
302,-0.17,1.24,0.96,0.21,-0.15,1.02
303,0.15,1.37,0.84,0.21,-0.14,1.03
304,0.55,1.31,0.79,0.21,-0.15,1.03
305,0.60,1.13,0.50,0.20,-0.15,1.02
306,0.43,0.64,0.56,0.20,-0.15,1.03
307,0.52,0.11,0.69,0.20,-0.15,1.03
308,0.64,-0.61,1.02,0.19,-0.15,1.04
309,0.99,-0.38,0.95,0.19,-0.15,1.03
310,1.05,0.11,1.24,0.19,-0.15,1.03
311,1.10,0.15,1.59,0.19,-0.15,1.04
312,1.21,-0.03,1.60,0.19,-0.15,1.04
313,1.25,-0.23,1.62,0.19,-0.15,1.03
314,1.40,-1.02,1.30,0.20,-0.15,1.03
315,1.18,-1.77,0.90,0.20,-0.15,1.03
316,1.31,-2.35,1.02,0.20,-0.15,1.04
317,1.60,-2.46,0.93,0.20,-0.16,1.04
318,1.71,-2.81,1.02,0.20,-0.16,1.04
319,1.60,-2.76,1.21,0.19,-0.16,1.05
320,1.50,-1.56,1.48,0.20,-0.16,1.05
321,1.76,0.53,1.95,0.20,-0.16,1.04
322,1.83,1.95,2.06,0.21,-0.16,1.05
323,1.83,2.44,2.29,0.20,-0.15,1.04
324,1.79,2.58,2.44,0.20,-0.15,1.03
325,1.76,2.40,2.08,0.21,-0.15,1.04
326,1.97,2.03,2.15,0.21,-0.16,1.03
327,1.47,1.62,1.74,0.21,-0.15,1.03
328,1.48,1.13,1.63,0.21,-0.14,1.02
329,1.44,0.56,1.36,0.21,-0.15,1.03
330,1.63,0.06,1.37,0.20,-0.14,1.03
331,1.54,-0.09,1.19,0.20,-0.14,1.03
332,1.25,-0.63,1.07,0.20,-0.14,1.02
333,1.16,-0.21,1.22,0.20,-0.14,1.03
334,0.98,-0.37,1.22,0.20,-0.14,1.02
335,1.04,-1.01,1.22,0.20,-0.14,1.01
336,0.78,-0.89,1.33,0.20,-0.14,1.02
337,0.63,-1.60,1.21,0.20,-0.14,1.02
338,0.81,-1.66,1.25,0.21,-0.14,1.03
339,0.53,-1.40,1.11,0.21,-0.14,1.03
340,0.49,-1.21,1.34,0.20,-0.15,1.04
341,0.72,-0.03,1.39,0.20,-0.15,1.04
342,0.89,0.34,1.51,0.21,-0.15,1.05
343,1.28,0.73,1.39,0.21,-0.14,1.05
344,1.82,1.13,1.33,0.21,-0.14,1.05
345,2.02,0.99,1.42,0.21,-0.14,1.05
346,2.12,0.73,1.69,0.20,-0.14,1.04
347,2.47,0.49,1.51,0.20,-0.13,1.03
348,2.41,1.28,1.31,0.21,-0.14,1.03
349,2.18,0.70,1.40,0.21,-0.14,1.03
350,2.11,0.03,1.25,0.20,-0.14,1.02
351,1.86,0.35,1.10,0.21,-0.13,1.00
352,1.63,-0.23,0.96,0.20,-0.13,1.00
353,1.21,-0.05,1.15,0.21,-0.13,1.00
354,0.90,0.87,0.75,0.22,-0.13,0.99
355,0.56,0.55,0.55,0.21,-0.14,1.00
356,-0.20,-0.34,0.27,0.22,-0.13,1.00
357,-0.84,-0.37,-0.26,0.22,-0.14,1.00
358,-1.40,-0.85,-0.17,0.21,-0.14,1.01
359,-1.66,-1.27,-0.26,0.21,-0.14,1.01
360,-1.91,-1.31,-0.41,0.20,-0.14,1.02
361,-1.50,-1.27,-0.43,0.21,-0.14,1.04
362,-1.31,-0.66,-0.76,0.22,-0.14,1.04
363,-1.08,-0.23,-0.52,0.21,-0.14,1.05
364,-0.70,0.18,-0.63,0.21,-0.15,1.06
365,-0.41,0.43,-0.43,0.20,-0.15,1.05
366,-0.20,0.52,-0.43,0.21,-0.15,1.05
367,0.06,0.84,-0.53,0.20,-0.15,1.04
368,0.20,0.14,-0.27,0.19,-0.15,1.05
369,0.27,-0.17,-0.20,0.19,-0.15,1.03
370,0.18,-0.08,-0.12,0.19,-0.15,1.04
371,0.12,-0.32,-0.03,0.19,-0.14,1.03
372,-0.09,0.24,0.02,0.19,-0.15,1.02
373,-0.44,0.44,0.35,0.19,-0.14,1.03
374,-0.40,0.52,0.43,0.20,-0.14,1.03
375,-0.11,-0.23,0.40,0.19,-0.14,1.03
376,0.02,-0.27,0.35,0.21,-0.14,1.04
377,-0.03,0.27,0.23,0.21,-0.14,1.03
378,-0.12,0.27,-0.12,0.22,-0.14,1.03
379,0.17,-0.02,-0.43,0.21,-0.14,1.04
380,0.11,-0.20,-0.55,0.21,-0.14,1.03
381,0.02,0.00,-0.35,0.21,-0.14,1.04
382,-0.08,-0.17,-0.27,0.20,-0.14,1.04
383,-0.24,-0.27,-0.12,0.20,-0.14,1.04
384,-0.47,0.05,-0.05,0.19,-0.14,1.03
385,-0.47,0.35,-0.09,0.19,-0.14,1.03
386,-0.26,0.31,-0.02,0.20,-0.14,1.03
387,0.12,0.56,-0.17,0.20,-0.14,1.04
388,0.00,0.02,-0.12,0.19,-0.14,1.04
389,-0.06,-0.14,-0.23,0.20,-0.15,1.03
390,-0.08,-0.15,0.09,0.19,-0.14,1.03
391,-0.03,-0.14,0.00,0.20,-0.14,1.03
392,-0.26,-0.63,0.18,0.19,-0.15,1.02
393,-0.47,-0.87,0.20,0.19,-0.14,1.03
394,-0.53,-0.87,0.26,0.20,-0.14,1.02
395,-0.72,-1.10,0.27,0.19,-0.14,1.03
396,-0.66,-1.27,0.27,0.19,-0.14,1.04
397,-0.55,-1.56,0.52,0.19,-0.15,1.04
398,-0.49,-1.11,0.64,0.19,-0.14,1.05
399,0.03,-0.46,0.96,0.20,-0.15,1.06
400,0.56,0.31,1.31,0.20,-0.15,1.06
401,0.93,1.24,1.28,0.20,-0.14,1.06
402,0.96,1.39,1.36,0.20,-0.15,1.06
403,1.31,1.44,1.60,0.19,-0.15,1.06
404,1.21,0.52,1.80,0.18,-0.14,1.05
405,1.18,0.09,1.94,0.19,-0.14,1.04
406,1.04,-0.34,2.02,0.20,-0.15,1.03
407,1.07,-0.31,1.92,0.21,-0.14,1.04
408,1.10,-0.14,1.83,0.21,-0.14,1.02
409,0.92,0.12,1.73,0.21,-0.14,1.02
410,0.67,-0.32,1.82,0.20,-0.14,1.03
411,0.67,-0.18,1.74,0.20,-0.13,1.02
412,0.38,0.11,1.69,0.21,-0.14,1.02
413,0.14,-0.37,1.39,0.21,-0.14,1.01
414,0.00,-0.49,1.16,0.21,-0.14,1.02
415,-0.26,-0.41,1.15,0.21,-0.14,1.01
416,-0.29,-0.85,1.15,0.20,-0.13,1.01
417,-0.38,-1.10,1.11,0.20,-0.14,1.02
418,-0.29,-0.78,1.07,0.20,-0.13,1.02
419,-0.35,-0.67,1.11,0.21,-0.14,1.02
420,-0.41,-0.72,1.07,0.20,-0.14,1.03
421,-0.41,-0.87,1.11,0.20,-0.14,1.02
422,-0.14,-0.02,1.07,0.20,-0.14,1.02
423,-0.18,-0.24,0.96,0.21,-0.14,1.02
424,-0.06,-0.67,0.76,0.21,-0.14,1.02
425,-0.09,-0.67,0.55,0.21,-0.14,1.02
426,-0.06,-1.07,0.27,0.20,-0.14,1.02
427,-0.32,-1.30,0.43,0.20,-0.14,1.02
428,-0.53,-1.33,0.37,0.19,-0.14,1.02
429,-0.55,-1.51,0.69,0.19,-0.14,1.02
430,-1.16,-1.18,0.99,0.19,-0.15,1.02
431,-0.99,-0.56,1.02,0.20,-0.15,1.04
432,-1.05,-0.52,1.39,0.19,-0.15,1.04
433,-0.69,-0.56,1.63,0.20,-0.15,1.04
434,-0.55,-0.34,1.74,0.20,-0.15,1.05
435,-0.03,0.82,1.95,0.20,-0.14,1.04
436,0.38,1.47,2.29,0.20,-0.14,1.04
437,0.79,0.99,2.31,0.20,-0.15,1.04
438,1.08,0.76,2.40,0.19,-0.15,1.04
439,1.16,0.08,2.43,0.19,-0.14,1.03
440,1.48,-0.34,2.75,0.20,-0.14,1.04
441,1.33,-0.73,2.75,0.19,-0.14,1.03
442,1.45,-2.24,3.44,0.19,-0.14,1.03
443,1.94,-3.19,3.79,0.17,-0.15,1.03
444,1.74,-3.21,4.05,0.19,-0.14,1.02
445,1.65,-3.19,4.40,0.19,-0.15,1.02
446,0.72,-0.24,4.18,0.20,-0.15,1.00
447,0.61,-2.46,5.50,0.18,-0.14,1.02
448,1.22,-6.98,6.46,0.18,-0.15,1.03
449,1.04,-6.50,6.38,0.19,-0.15,1.02
450,1.07,-4.00,6.70,0.21,-0.15,1.03
451,1.07,-3.15,6.98,0.21,-0.15,1.02
452,0.78,-2.73,7.59,0.20,-0.15,1.04
453,0.50,-1.28,8.38,0.20,-0.16,1.04
454,0.58,-0.09,9.56,0.18,-0.16,1.05
455,1.04,-1.02,10.61,0.17,-0.17,1.06
456,1.89,-0.09,11.66,0.18,-0.18,1.06
457,2.67,1.11,13.08,0.17,-0.18,1.06
458,3.19,2.79,14.21,0.16,-0.20,1.06
459,3.86,-0.37,15.77,0.13,-0.20,1.06
460,5.27,-3.33,17.42,0.11,-0.21,1.09
461,6.60,-7.04,18.79,0.11,-0.22,1.11
462,9.45,-15.39,20.43,0.09,-0.23,1.13
463,13.37,-18.38,22.47,0.07,-0.24,1.12
464,17.22,-27.91,25.63,0.01,-0.27,1.13
465,20.29,-37.91,29.11,-0.02,-0.27,1.12
466,23.59,-41.76,34.60,-0.05,-0.30,1.13
467,26.61,-43.19,40.78,-0.08,-0.33,1.14
468,28.24,-41.31,47.85,-0.11,-0.37,1.11
469,27.40,-38.46,57.40,-0.19,-0.41,1.10
470,27.53,-37.04,69.13,-0.28,-0.44,1.12
471,28.15,-31.82,82.56,-0.32,-0.47,1.12
472,26.67,-24.34,97.71,-0.33,-0.51,1.11
473,25.63,-20.98,111.02,-0.33,-0.55,1.10
474,26.73,-23.63,121.45,-0.25,-0.57,1.13
475,29.40,-22.96,128.82,-0.13,-0.58,1.13
476,34.95,-21.53,131.77,0.02,-0.58,1.16
477,39.59,-24.06,130.49,0.08,-0.61,1.13
478,46.56,-27.21,128.31,0.14,-0.62,1.08
479,48.26,-38.26,126.03,0.14,-0.58,1.08
480,54.81,-48.78,119.08,0.11,-0.62,1.07
481,56.41,-50.35,117.92,0.05,-0.63,1.03
482,58.18,-59.56,118.92,-0.07,-0.65,1.05
483,61.02,-70.96,123.98,-0.13,-0.64,1.05
484,64.75,-74.49,129.30,-0.12,-0.65,1.03
485,66.52,-69.76,137.95,-0.13,-0.68,1.00
486,68.40,-68.85,147.91,-0.19,-0.69,1.04
487,69.47,-60.79,159.56,-0.14,-0.69,1.06
488,68.75,-51.33,169.60,-0.10,-0.70,1.07
489,68.87,-39.31,180.29,-0.05,-0.68,1.09
490,75.68,-33.04,187.79,0.03,-0.66,1.07
491,79.22,-43.01,192.17,0.08,-0.63,1.02
492,78.50,-51.77,190.79,0.18,-0.62,0.96
493,75.42,-53.68,187.63,0.26,-0.57,0.93
494,77.04,-47.76,185.31,0.33,-0.53,0.91
495,78.87,-35.50,182.52,0.42,-0.48,0.88
496,77.04,-27.59,177.48,0.42,-0.46,0.86
497,74.95,-39.25,172.98,0.34,-0.43,0.86
498,75.97,-51.54,168.60,0.34,-0.41,0.89
499,76.50,-55.95,165.36,0.35,-0.38,0.92
500,79.47,-62.21,161.74,0.37,-0.36,0.94
501,81.05,-61.98,157.31,0.40,-0.34,0.93
502,81.68,-60.27,154.05,0.38,-0.34,0.94
503,81.04,-61.08,155.50,0.31,-0.34,0.94
504,78.53,-57.48,158.79,0.30,-0.30,0.91
505,77.97,-54.29,163.11,0.32,-0.28,0.89
506,76.50,-52.02,165.33,0.34,-0.26,0.87
507,72.84,-44.93,168.23,0.36,-0.23,0.87
508,69.13,-38.21,170.09,0.41,-0.21,0.87
509,67.18,-31.19,169.79,0.44,-0.22,0.88
510,64.85,-23.83,169.16,0.46,-0.20,0.88
511,62.90,-21.19,168.05,0.47,-0.20,0.90
512,61.27,-21.98,167.04,0.47,-0.18,0.92
513,57.88,-15.73,166.03,0.51,-0.18,0.87
514,56.41,-13.02,165.92,0.50,-0.19,0.88
515,53.44,-12.96,167.33,0.47,-0.20,0.87
516,49.91,-15.21,169.47,0.46,-0.19,0.87
517,48.38,-22.05,171.57,0.45,-0.18,0.87
518,47.97,-24.58,173.27,0.49,-0.19,0.85
519,43.71,-25.79,175.53,0.49,-0.18,0.78
520,42.47,-23.74,174.99,0.52,-0.21,0.80
521,39.44,-23.95,177.02,0.49,-0.22,0.81
522,33.77,-25.08,180.67,0.48,-0.20,0.83
523,33.34,-22.66,180.40,0.54,-0.18,0.90
524,35.51,-14.32,179.02,0.59,-0.19,0.90
525,37.37,-4.84,178.90,0.60,-0.17,0.90
526,40.09,2.92,177.85,0.60,-0.16,0.88
527,41.47,9.97,177.27,0.59,-0.15,0.86
528,44.02,13.95,176.79,0.57,-0.16,0.85
529,44.47,14.61,178.99,0.50,-0.16,0.85
530,45.05,13.98,182.03,0.49,-0.16,0.87
531,43.56,13.18,183.33,0.55,-0.16,0.83
532,41.16,24.12,184.08,0.58,-0.17,0.77
533,35.34,27.22,185.31,0.56,-0.17,0.77
534,29.33,36.87,186.72,0.60,-0.19,0.78
535,23.79,49.59,187.95,0.63,-0.16,0.82
536,21.80,63.19,187.08,0.67,-0.17,0.82
537,19.85,70.15,187.36,0.61,-0.17,0.84
538,15.97,70.85,187.66,0.60,-0.18,0.85
539,15.66,73.88,187.69,0.65,-0.19,0.86
540,12.56,84.08,185.63,0.68,-0.19,0.85
541,9.25,89.80,184.69,0.66,-0.18,0.84
542,6.24,91.69,182.79,0.64,-0.20,0.83
543,3.07,90.08,182.18,0.61,-0.19,0.84
544,1.50,85.73,180.95,0.60,-0.19,0.84
545,-1.07,86.34,179.98,0.60,-0.21,0.82
546,-3.16,82.05,178.03,0.59,-0.21,0.84
547,-4.05,75.94,175.19,0.61,-0.22,0.85
548,-4.98,72.60,171.37,0.61,-0.22,0.90
549,-5.13,71.37,165.19,0.67,-0.21,0.95
550,-3.33,72.75,157.02,0.72,-0.21,0.96
551,-3.66,75.57,147.48,0.71,-0.21,0.98
552,-3.57,73.59,137.82,0.69,-0.20,1.01
553,-3.07,69.66,128.87,0.62,-0.22,1.02
554,-4.90,66.89,123.02,0.55,-0.24,1.03
555,2.85,49.28,119.50,0.39,-0.24,0.89
556,-20.66,36.12,118.99,0.46,-0.28,1.03
557,-39.28,87.01,119.62,0.49,-0.23,1.24
558,-18.14,62.23,117.28,0.45,-0.29,1.33
559,-15.88,86.60,116.47,0.56,-0.32,1.14
560,-7.33,79.57,108.89,0.46,-0.31,1.08
561,-8.95,51.68,98.72,0.38,-0.32,1.09
562,-21.27,46.12,90.79,0.47,-0.27,1.28
563,-33.65,60.85,86.61,0.58,-0.21,1.40
564,-35.53,35.92,81.82,0.46,-0.40,1.29
565,-26.08,-29.19,66.43,0.35,-0.35,1.19
566,-19.71,-37.83,57.59,0.46,-0.33,1.15
567,5.31,-39.83,51.86,0.40,-0.31,1.12
568,18.53,-79.19,43.85,0.32,-0.32,1.15
569,21.47,-125.65,36.95,0.27,-0.29,1.06
570,-2.09,-105.51,38.03,0.35,-0.27,1.05
571,-19.27,-63.83,36.78,0.34,-0.26,1.12
572,-29.74,-53.10,33.44,0.33,-0.30,1.11
573,-30.69,-67.92,27.19,0.34,-0.33,1.10
574,-31.48,-89.68,20.08,0.32,-0.32,1.14
575,-30.41,-102.60,16.53,0.38,-0.33,1.09
576,-26.29,-109.40,11.97,0.40,-0.32,1.06
577,-30.41,-109.82,6.72,0.42,-0.32,0.98
578,-34.14,-93.45,4.14,0.45,-0.31,1.03
579,-43.94,-74.75,-0.11,0.44,-0.31,1.05
580,-66.38,-64.02,-5.91,0.42,-0.32,1.08
581,-67.53,-44.99,-9.74,0.42,-0.31,1.06
582,-85.45,-47.11,-13.86,0.38,-0.39,1.05
583,-84.20,-45.56,-19.76,0.38,-0.33,0.95
584,-79.51,-39.01,-21.30,0.41,-0.38,0.93
585,-80.38,-35.98,-29.13,0.36,-0.31,0.92
586,-75.95,-29.92,-30.93,0.34,-0.36,0.95
587,-55.73,-31.85,-26.24,0.26,-0.34,0.94
588,-40.89,-23.83,-24.32,0.28,-0.38,0.89
589,-43.28,-11.07,-23.22,0.29,-0.35,0.97
590,-32.03,-0.84,-17.34,0.29,-0.35,0.95
591,-24.15,-9.51,-18.27,0.24,-0.34,0.95
592,-14.49,-19.68,-17.80,0.24,-0.35,0.90
593,-10.53,-28.17,-18.98,0.24,-0.31,0.89
594,-6.98,-24.38,-16.90,0.27,-0.31,0.84
595,-6.81,-20.78,-15.98,0.25,-0.31,0.86
596,-6.55,-19.27,-15.62,0.24,-0.31,0.88
597,-4.87,-12.27,-14.53,0.25,-0.31,0.89
598,-4.08,-10.27,-14.56,0.23,-0.31,0.92
599,-3.91,-8.96,-14.52,0.24,-0.32,0.91
600,-2.79,-8.63,-13.89,0.21,-0.32,0.92
601,-1.37,-8.26,-12.90,0.20,-0.31,0.94
602,-0.40,-8.66,-11.27,0.20,-0.31,0.93
603,0.95,-7.97,-9.34,0.20,-0.32,0.93
604,0.87,-5.25,-6.76,0.21,-0.31,0.92
605,0.76,-3.73,-4.63,0.23,-0.31,0.92
606,1.34,-1.39,-2.89,0.24,-0.32,0.92
607,1.50,2.72,-1.74,0.27,-0.31,0.93
608,1.53,6.43,-0.85,0.27,-0.32,0.95
609,2.93,10.61,0.85,0.27,-0.33,0.97
610,4.46,12.47,0.90,0.27,-0.33,0.97
611,4.76,11.80,0.99,0.25,-0.33,0.98
612,5.71,9.04,1.07,0.23,-0.34,0.99
613,6.34,6.11,1.51,0.23,-0.34,0.98
614,6.17,4.64,2.02,0.22,-0.34,0.99
615,7.69,6.05,2.50,0.24,-0.34,0.98
616,8.58,2.53,1.83,0.24,-0.34,1.01
617,9.80,0.49,0.99,0.25,-0.34,1.01
618,11.18,-3.89,0.63,0.24,-0.33,0.99
619,10.82,-1.25,0.58,0.25,-0.33,0.98
620,12.08,4.72,1.83,0.25,-0.33,1.01
621,14.20,1.02,1.50,0.22,-0.33,1.02
622,16.96,7.10,2.73,0.25,-0.33,1.00
623,17.25,13.94,4.02,0.25,-0.32,1.01
624,14.09,-28.60,-1.01,0.12,-0.29,0.90
625,15.59,16.82,1.76,0.36,-0.33,0.97
626,5.66,36.35,6.05,0.25,-0.30,1.05
627,11.83,71.50,13.16,0.32,-0.36,1.01
628,18.70,59.42,13.02,0.20,-0.35,1.06
629,25.22,53.19,12.85,0.22,-0.35,1.06
630,26.64,12.76,7.18,0.17,-0.34,1.05
631,34.38,3.13,6.35,0.24,-0.35,0.98
632,33.25,-5.37,5.62,0.24,-0.33,0.96
633,34.15,5.76,8.92,0.27,-0.33,0.99
634,28.85,7.85,8.79,0.23,-0.32,1.01
635,22.18,15.63,8.81,0.24,-0.31,1.03
636,20.23,13.86,8.14,0.24,-0.31,1.02
637,17.60,12.18,7.44,0.27,-0.30,1.00
638,13.25,11.02,5.08,0.28,-0.30,0.98
639,9.88,9.68,3.69,0.27,-0.29,0.99
640,7.89,6.15,2.63,0.27,-0.30,0.98
641,5.48,1.39,1.44,0.26,-0.29,0.99
642,2.05,-0.81,0.20,0.26,-0.29,0.97
643,1.65,-0.64,-0.43,0.26,-0.29,0.95
644,-1.48,1.82,-0.79,0.25,-0.28,0.96
645,-2.35,2.05,-0.56,0.23,-0.29,0.98
646,-1.59,-3.44,-0.32,0.19,-0.29,0.98
647,-1.95,-4.11,0.37,0.20,-0.29,0.99
648,-1.53,-8.67,0.11,0.18,-0.28,1.00
649,-0.14,-14.70,-0.56,0.18,-0.29,1.00
650,-0.24,-17.45,-0.84,0.19,-0.28,0.99
651,-1.08,-17.22,-0.58,0.20,-0.28,0.97
652,-2.44,-19.97,-1.33,0.20,-0.28,0.97
653,-2.78,-22.79,-1.36,0.21,-0.28,0.95
654,-3.82,-24.79,-1.66,0.23,-0.29,0.96
655,-5.45,-25.53,-1.53,0.26,-0.29,0.96
656,-7.05,-23.94,-2.09,0.28,-0.30,0.97
657,-6.84,-24.85,-3.16,0.28,-0.30,0.98
658,-6.55,-25.69,-3.94,0.26,-0.30,1.00
659,-6.35,-22.37,-3.40,0.28,-0.31,1.00
660,-6.75,-14.89,-2.06,0.28,-0.31,1.00
661,-6.56,-11.45,-0.63,0.27,-0.31,1.00
662,-5.68,-10.96,0.00,0.27,-0.31,1.00
663,-4.95,-6.73,0.05,0.30,-0.31,1.00
664,-4.23,-6.92,-0.69,0.30,-0.31,0.99
665,-3.31,-6.99,-1.59,0.29,-0.30,0.99
666,-3.25,-0.92,-0.73,0.27,-0.30,1.00
667,-2.37,-1.44,-0.38,0.27,-0.30,0.98
668,-0.24,-4.92,-0.85,0.26,-0.30,0.95
669,-0.50,-2.44,-2.00,0.30,-0.30,0.97
670,0.61,-8.06,-3.53,0.28,-0.30,0.98
671,0.47,-8.40,-4.12,0.28,-0.31,0.97
672,-1.45,-9.63,-3.95,0.26,-0.30,0.95
673,-3.30,-5.24,-2.64,0.27,-0.30,0.95
674,-3.60,-0.06,-1.40,0.28,-0.30,0.98
675,-2.23,-3.69,-1.88,0.26,-0.30,0.99
676,-0.40,-4.64,-2.44,0.28,-0.30,0.99
677,-1.15,-7.19,-2.79,0.28,-0.30,0.97
678,-2.56,-2.06,-2.55,0.29,-0.29,0.97
679,-3.08,6.72,-1.27,0.28,-0.30,0.99
680,-0.35,8.14,-0.32,0.25,-0.31,1.01
681,0.29,1.13,-0.32,0.25,-0.31,0.97
682,-1.95,5.45,0.21,0.27,-0.29,0.95
683,-3.36,3.89,-0.11,0.25,-0.29,0.98
684,-2.58,0.00,-1.08,0.24,-0.29,0.98
685,-1.98,3.97,-0.38,0.25,-0.29,0.96
686,-2.66,3.91,-0.23,0.24,-0.30,0.97
687,-2.90,4.61,0.06,0.25,-0.30,0.96
688,-3.83,-0.82,-0.66,0.24,-0.30,0.97
689,-3.73,-3.31,-0.63,0.24,-0.30,0.97
690,-3.66,-4.85,-0.37,0.25,-0.30,0.98
691,-2.63,-2.46,0.15,0.28,-0.30,0.98
692,-0.63,2.15,0.90,0.29,-0.30,1.01
693,0.69,-0.27,-0.21,0.28,-0.30,1.01
694,0.41,4.53,0.05,0.29,-0.30,1.00
695,0.38,9.42,1.04,0.29,-0.30,1.00
696,1.37,9.08,1.11,0.26,-0.31,0.99
697,1.69,9.65,1.47,0.26,-0.30,0.99
698,1.65,9.10,1.45,0.26,-0.30,0.99
699,1.54,9.07,1.60,0.27,-0.30,0.98
700,0.87,9.37,1.54,0.25,-0.30,0.98
701,0.96,6.41,0.81,0.25,-0.31,1.00
702,0.92,5.60,0.56,0.25,-0.31,0.99
703,0.89,6.40,0.38,0.26,-0.30,1.00
704,1.40,4.41,-0.02,0.25,-0.30,0.98
705,1.34,4.73,-0.02,0.25,-0.30,0.99
706,1.37,4.73,0.35,0.25,-0.30,0.99
707,1.40,5.11,0.66,0.25,-0.30,0.99
708,1.33,5.63,0.82,0.25,-0.30,1.00
709,1.16,3.74,0.81,0.23,-0.30,1.00
710,0.95,3.37,1.11,0.23,-0.30,0.98
711,0.69,3.68,1.42,0.25,-0.30,0.98
712,0.50,2.89,1.18,0.26,-0.30,0.99
713,0.46,0.93,0.20,0.26,-0.29,0.98
714,1.04,0.85,-0.27,0.26,-0.30,1.00
715,1.66,-0.24,-0.96,0.26,-0.30,1.01
716,1.76,0.08,-1.42,0.25,-0.30,0.98
717,1.63,0.85,-1.71,0.26,-0.30,0.97
718,0.67,-0.76,-1.92,0.24,-0.29,0.97
719,-0.49,-1.16,-2.12,0.24,-0.30,0.96
720,-0.79,-0.75,-2.20,0.25,-0.30,0.98
721,-0.31,-3.28,-2.56,0.24,-0.30,0.97
722,-0.43,-4.92,-3.30,0.24,-0.30,0.98
723,-1.22,-5.48,-2.96,0.24,-0.31,0.98
724,-0.84,-6.67,-2.58,0.23,-0.31,0.99
725,0.05,-8.23,-2.67,0.23,-0.31,0.99
726,0.99,-9.62,-2.79,0.25,-0.32,1.00
727,2.18,-9.27,-2.89,0.26,-0.31,1.00
728,2.76,-8.17,-2.89,0.26,-0.31,1.00
729,2.79,-7.24,-2.98,0.27,-0.31,0.99
730,3.60,-7.89,-3.22,0.27,-0.30,0.98
731,3.44,-8.17,-3.39,0.27,-0.30,0.98
732,3.54,-8.05,-3.80,0.28,-0.30,0.97
733,3.04,-7.28,-3.92,0.28,-0.30,0.97
734,2.29,-8.05,-4.41,0.27,-0.30,0.96
735,1.71,-8.90,-4.49,0.28,-0.29,0.96
736,1.24,-9.48,-4.89,0.29,-0.29,0.96
