,gyro_x,gyro_y,gyro_z,acce_x,acce_y,acce_z
0,-0.11,-4.34,-6.52,0.04,-0.31,1.01
1,-0.02,-2.73,-5.95,0.04,-0.30,1.01
2,0.50,-0.95,-5.05,0.05,-0.30,1.01
3,1.02,-2.95,-5.27,0.04,-0.30,1.01
4,0.99,-4.26,-5.36,0.05,-0.29,1.00
5,0.27,-5.44,-5.42,0.05,-0.29,1.00
6,0.38,-6.81,-5.66,0.05,-0.30,1.00
7,-0.21,-8.09,-5.95,0.06,-0.29,1.01
8,-0.41,-7.92,-5.69,0.07,-0.30,1.01
9,-0.18,-9.34,-5.73,0.06,-0.31,1.02
10,0.60,-10.21,-5.57,0.07,-0.31,1.03
11,0.82,-10.38,-5.22,0.07,-0.30,1.02
12,0.82,-10.44,-4.32,0.07,-0.30,1.02
13,0.76,-10.55,-3.74,0.07,-0.30,1.03
14,0.60,-10.17,-2.95,0.08,-0.30,1.01
15,0.08,-10.40,-2.52,0.09,-0.30,1.01
16,-0.24,-10.64,-2.31,0.10,-0.29,1.01
17,-0.63,-10.32,-2.17,0.11,-0.30,1.00
18,-0.50,-9.82,-2.02,0.11,-0.29,1.01
19,-0.73,-9.71,-1.94,0.12,-0.30,1.01
20,-0.70,-9.60,-1.97,0.11,-0.30,1.01
21,-1.01,-8.87,-2.15,0.12,-0.29,1.01
22,-1.27,-8.34,-2.17,0.12,-0.29,1.01
23,-1.15,-8.55,-2.63,0.12,-0.30,1.02
24,-1.42,-8.60,-2.73,0.13,-0.29,1.02
25,-1.30,-7.53,-2.50,0.12,-0.29,1.03
26,-0.89,-7.91,-2.35,0.13,-0.30,1.04
27,-0.76,-5.62,-1.77,0.13,-0.30,1.05
28,0.08,-2.70,-0.78,0.14,-0.31,1.06
29,0.55,-2.89,-0.56,0.12,-0.31,1.06
30,0.84,-3.02,-0.29,0.13,-0.30,1.05
31,0.89,-2.08,0.21,0.13,-0.30,1.04
32,0.43,-1.47,0.84,0.13,-0.29,1.03
33,0.43,-0.49,0.96,0.13,-0.29,1.02
34,-0.02,0.85,1.21,0.13,-0.29,1.01
35,-0.14,1.31,1.42,0.12,-0.30,1.01
36,0.69,0.43,1.40,0.12,-0.29,1.03
37,1.28,-1.11,1.18,0.12,-0.29,1.01
38,1.45,-0.24,1.40,0.13,-0.29,1.01
39,1.91,0.95,1.85,0.12,-0.29,1.01
40,1.68,2.02,2.44,0.12,-0.28,1.01
41,1.57,2.84,2.92,0.12,-0.29,1.02
42,1.76,3.24,3.51,0.12,-0.28,1.02
43,1.53,2.24,3.85,0.12,-0.28,1.00
44,1.63,2.84,3.94,0.13,-0.28,1.01
45,1.56,3.31,4.00,0.14,-0.27,1.01
46,1.30,2.18,3.56,0.13,-0.26,1.00
47,0.96,2.81,3.34,0.13,-0.26,1.00
48,1.31,4.52,3.62,0.14,-0.26,0.99
49,1.05,0.21,2.66,0.11,-0.26,0.99
50,1.04,-0.61,2.17,0.13,-0.26,0.99
51,1.44,1.79,2.23,0.13,-0.27,1.00
52,1.56,2.60,2.23,0.14,-0.27,0.99
53,1.76,3.97,2.44,0.13,-0.27,0.99
54,1.60,3.27,1.91,0.12,-0.27,0.99
55,0.95,1.80,1.57,0.12,-0.27,0.99
56,1.21,3.18,1.82,0.12,-0.27,0.99
57,0.93,2.56,1.76,0.11,-0.28,0.99
58,0.73,3.02,2.08,0.11,-0.28,1.01
59,0.73,1.88,2.14,0.11,-0.28,0.99
60,0.89,0.60,1.97,0.11,-0.28,1.00
61,1.27,0.55,2.18,0.12,-0.29,1.01
62,1.22,0.81,2.78,0.11,-0.28,1.01
63,1.25,1.77,3.28,0.12,-0.28,1.00
64,1.05,2.72,3.40,0.12,-0.28,1.00
65,0.84,2.95,3.83,0.12,-0.28,0.99
66,0.06,1.62,3.97,0.11,-0.27,0.99
67,-0.72,0.24,4.00,0.12,-0.26,0.99
68,-1.01,0.64,4.18,0.13,-0.26,0.99
69,-1.19,1.28,3.94,0.14,-0.27,0.99
70,-1.59,0.90,3.94,0.14,-0.26,0.99
71,-1.28,1.07,3.21,0.14,-0.27,0.99
72,-1.01,0.78,2.64,0.15,-0.27,1.00
73,-0.85,1.34,2.43,0.14,-0.27,0.99
74,-0.76,1.39,1.92,0.14,-0.27,1.00
75,-1.19,0.75,1.85,0.13,-0.27,1.00
76,-2.00,-0.23,1.54,0.13,-0.27,1.00
77,-2.17,0.02,1.56,0.13,-0.27,1.01
78,-2.37,0.03,1.22,0.13,-0.27,1.00
79,-2.17,-0.05,0.93,0.13,-0.28,1.01
80,-2.14,0.00,0.63,0.13,-0.28,1.00
81,-2.08,-0.29,0.73,0.12,-0.29,1.01
82,-2.32,-0.11,0.85,0.12,-0.28,1.01
83,-2.20,-0.79,0.55,0.11,-0.30,1.01
84,-2.05,-1.53,0.38,0.12,-0.29,1.02
85,-2.00,-0.82,0.43,0.12,-0.30,1.03
86,-1.71,-0.60,0.20,0.11,-0.30,1.03
87,-1.42,-0.44,0.24,0.12,-0.31,1.03
88,-1.69,0.21,0.43,0.12,-0.31,1.03
89,-1.65,0.67,0.82,0.10,-0.31,1.04
90,-1.40,0.56,0.85,0.11,-0.32,1.04
91,-1.05,1.15,0.96,0.10,-0.31,1.03
92,-0.70,1.33,1.13,0.10,-0.31,1.03
93,-0.37,0.87,1.05,0.10,-0.30,1.03
94,-0.53,0.05,1.33,0.10,-0.29,1.02
95,-0.46,0.56,1.33,0.11,-0.30,1.02
96,-0.41,0.23,0.84,0.11,-0.29,1.01
97,-0.49,-0.56,0.12,0.12,-0.30,1.02
98,-0.84,-1.37,-0.46,0.12,-0.29,1.00
99,-1.04,-2.64,-0.69,0.11,-0.30,1.01
100,-1.04,-3.91,-0.95,0.11,-0.29,1.01
101,-0.81,-3.31,-0.85,0.13,-0.31,1.02
102,-0.79,-2.27,-1.13,0.12,-0.29,1.01
103,-0.61,-2.43,-0.72,0.12,-0.29,1.03
104,-0.76,-1.79,-0.64,0.12,-0.30,1.01
105,-0.75,-1.73,-0.64,0.13,-0.30,1.03
106,-0.75,-2.09,-1.01,0.12,-0.29,1.02
107,-0.99,-1.94,-1.74,0.13,-0.30,1.02
108,-0.75,-0.99,-1.56,0.13,-0.30,1.02
109,-0.69,-0.44,-1.42,0.12,-0.31,1.02
110,-1.10,-1.16,-1.57,0.13,-0.30,1.01
111,-1.15,-0.11,-1.69,0.13,-0.30,1.01
112,-0.53,0.56,-1.92,0.13,-0.30,1.01
113,-0.85,0.60,-2.32,0.12,-0.30,1.02
114,-0.64,1.19,-2.18,0.12,-0.30,1.02
115,-0.35,1.76,-1.98,0.11,-0.30,1.02
116,-0.66,2.29,-1.68,0.11,-0.31,1.02
117,-0.41,2.95,-0.76,0.10,-0.30,1.01
118,-0.31,3.30,-0.66,0.10,-0.30,1.01
119,-0.31,3.48,0.00,0.09,-0.30,1.01
120,-0.29,3.56,0.43,0.09,-0.30,1.00
121,-0.44,3.27,0.49,0.09,-0.30,1.00
122,-0.32,3.11,0.66,0.09,-0.30,0.99
123,-0.43,3.01,0.27,0.09,-0.30,1.00
124,-0.43,2.34,0.15,0.09,-0.29,1.00
125,-0.32,2.15,0.02,0.09,-0.30,1.00
126,-0.05,2.26,-0.05,0.09,-0.29,1.00
127,0.18,1.62,-0.18,0.09,-0.30,1.01
128,0.08,1.73,-0.37,0.08,-0.30,1.00
129,0.21,2.23,-0.27,0.08,-0.30,1.00
130,0.18,2.41,0.14,0.07,-0.29,1.01
131,0.15,2.84,0.60,0.07,-0.30,1.01
132,0.08,3.27,0.73,0.08,-0.30,1.01
133,0.05,2.47,1.10,0.07,-0.30,1.01
134,0.21,1.97,1.37,0.06,-0.30,1.00
135,-0.08,1.39,1.98,0.06,-0.30,0.99
136,-0.14,0.23,2.43,0.06,-0.30,1.01
137,0.14,-0.38,2.06,0.07,-0.30,1.01
138,0.41,-0.35,2.47,0.08,-0.30,1.00
139,0.61,-0.52,2.56,0.09,-0.30,1.01
140,0.90,-0.81,2.18,0.10,-0.30,1.02
141,1.18,-0.44,2.70,0.10,-0.30,1.03
142,1.25,0.15,2.46,0.11,-0.31,1.03
143,0.89,0.08,2.37,0.11,-0.30,1.02
144,0.66,0.14,2.06,0.11,-0.29,1.02
145,0.64,0.38,1.89,0.12,-0.30,1.03
146,0.49,0.27,1.92,0.11,-0.30,1.03
147,0.92,0.20,1.66,0.11,-0.29,1.03
148,1.02,0.81,2.06,0.12,-0.30,1.03
149,1.50,1.65,2.34,0.11,-0.30,1.02
150,1.86,1.82,1.76,0.11,-0.30,1.02
151,1.60,2.02,1.77,0.12,-0.30,1.02
152,1.25,1.76,1.59,0.12,-0.30,1.03
153,1.15,0.37,1.63,0.11,-0.30,1.04
154,1.04,0.40,2.20,0.11,-0.30,1.03
155,0.89,1.02,2.44,0.11,-0.31,1.04
156,0.99,1.48,2.34,0.12,-0.31,1.04
157,1.34,2.49,2.26,0.12,-0.30,1.05
158,1.94,3.63,2.37,0.12,-0.30,1.04
159,2.40,4.78,2.14,0.13,-0.30,1.04
160,2.67,5.97,2.03,0.13,-0.30,1.04
161,2.43,6.20,1.89,0.12,-0.30,1.03
162,2.55,6.66,1.57,0.12,-0.30,1.02
163,2.14,6.84,1.47,0.11,-0.29,1.01
164,1.94,5.79,1.21,0.11,-0.29,1.01
165,1.74,5.53,0.78,0.12,-0.29,1.00
166,1.66,6.58,0.53,0.11,-0.28,0.99
167,1.36,6.11,0.00,0.10,-0.29,0.99
168,0.76,5.76,-0.21,0.10,-0.28,0.97
169,0.47,5.82,-0.60,0.10,-0.28,0.97
170,-0.20,5.25,-0.58,0.08,-0.28,0.98
171,-0.53,4.24,-1.01,0.08,-0.28,0.99
172,-0.75,3.80,-0.84,0.07,-0.29,0.98
173,-0.82,3.45,-0.72,0.07,-0.29,0.99
174,-1.42,2.79,-0.82,0.08,-0.29,1.00
175,-1.39,1.82,-0.95,0.08,-0.29,1.01
176,-1.25,-0.03,-1.53,0.09,-0.30,1.01
177,-1.16,-1.34,-2.14,0.08,-0.30,1.01
178,-1.19,-1.76,-1.94,0.08,-0.30,1.02
179,-1.21,-1.94,-1.82,0.08,-0.31,1.02
180,-1.10,-1.86,-1.74,0.09,-0.30,1.02
181,-0.84,-1.57,-1.77,0.09,-0.30,1.03
182,-0.64,-1.27,-1.50,0.09,-0.30,1.02
183,-0.90,-1.51,-1.42,0.09,-0.30,1.02
184,-0.85,-1.85,-1.33,0.09,-0.30,1.02
185,-0.32,-2.58,-1.60,0.09,-0.31,1.03
186,0.05,-2.23,-1.47,0.10,-0.31,1.04
187,0.60,-1.56,-0.90,0.09,-0.31,1.06
188,1.10,-0.37,-0.63,0.09,-0.32,1.04
189,1.15,0.14,-0.44,0.10,-0.30,1.04
190,1.08,0.24,-0.46,0.10,-0.30,1.03
191,0.87,0.02,-0.61,0.11,-0.30,1.03
192,0.32,-0.53,-0.99,0.11,-0.29,1.02
193,0.12,-1.62,-1.71,0.10,-0.29,1.02
194,-0.09,-2.72,-2.20,0.09,-0.29,1.01
195,-0.17,-3.48,-2.17,0.08,-0.29,1.01
196,-0.08,-4.60,-1.94,0.09,-0.30,1.01
197,-0.21,-4.14,-1.66,0.09,-0.29,1.01
198,-0.08,-4.14,-0.90,0.10,-0.30,1.03
199,-0.09,-3.95,-0.96,0.09,-0.31,1.03
200,-0.20,-3.34,-0.60,0.10,-0.31,1.04
201,0.69,-1.65,0.20,0.09,-0.31,1.04
202,0.60,-4.63,0.21,0.08,-0.31,1.04
203,0.18,-3.48,0.35,0.10,-0.31,1.04
204,0.84,0.24,1.45,0.11,-0.31,1.03
205,0.95,-1.37,1.22,0.09,-0.30,1.03
206,1.19,-0.06,1.42,0.10,-0.30,1.02
207,1.44,1.39,1.34,0.10,-0.30,1.00
208,1.40,-1.36,0.75,0.08,-0.29,1.01
209,1.62,-3.53,0.52,0.09,-0.29,0.99
210,1.21,-3.36,0.53,0.09,-0.28,0.99
211,0.70,-3.89,0.60,0.09,-0.29,0.99
212,0.47,-4.08,0.89,0.09,-0.28,0.99
213,0.67,-3.05,1.01,0.10,-0.29,0.99
214,0.26,-4.24,0.67,0.10,-0.28,1.00
215,0.60,-3.76,1.11,0.11,-0.29,1.01
216,1.04,-2.72,1.21,0.11,-0.29,1.01
217,1.21,-3.04,1.39,0.10,-0.29,1.00
218,1.31,-2.72,1.97,0.11,-0.29,1.01
219,1.21,-2.31,1.95,0.10,-0.29,1.00
220,0.76,-1.79,2.29,0.11,-0.29,0.98
221,0.52,-1.50,2.43,0.11,-0.27,1.00
222,0.49,-1.22,2.20,0.12,-0.28,0.99
223,0.50,-1.13,2.18,0.12,-0.27,0.99
224,0.34,-1.07,1.79,0.12,-0.28,0.98
225,0.55,-1.25,1.34,0.13,-0.28,0.99
226,0.85,-0.69,1.10,0.13,-0.28,1.00
227,1.04,-0.08,1.10,0.12,-0.28,1.00
228,0.64,-0.02,1.08,0.12,-0.28,1.00
229,0.50,-0.76,1.13,0.12,-0.28,1.00
230,0.08,-1.31,0.72,0.12,-0.28,0.99
231,-0.53,-1.15,0.58,0.11,-0.28,1.00
232,-0.78,-0.81,0.50,0.12,-0.28,1.01
233,-0.82,-0.47,0.75,0.11,-0.28,1.01
234,-0.61,0.15,0.89,0.12,-0.29,1.01
235,-0.14,0.93,1.10,0.12,-0.29,1.01
236,0.11,1.44,0.92,0.12,-0.29,1.02
237,0.50,1.98,1.44,0.12,-0.28,1.02
238,0.75,0.41,1.27,0.11,-0.29,1.01
239,0.50,0.81,1.24,0.11,-0.29,1.01
240,0.79,3.53,1.98,0.12,-0.29,1.02
241,0.64,2.79,1.34,0.11,-0.29,1.02
242,0.05,0.73,1.10,0.10,-0.29,1.01
243,0.21,1.22,1.02,0.11,-0.29,1.01
244,0.73,2.66,1.60,0.11,-0.29,1.01
245,0.58,2.85,1.85,0.10,-0.29,1.01
246,0.41,2.60,1.83,0.10,-0.28,1.01
247,0.41,2.72,1.82,0.10,-0.27,1.00
248,0.73,2.49,1.83,0.11,-0.27,1.00
249,0.84,1.21,0.99,0.11,-0.28,1.00
250,0.38,0.63,0.73,0.10,-0.28,0.99
251,-0.17,0.32,0.81,0.10,-0.28,0.99
252,-0.37,-0.15,0.47,0.11,-0.27,0.98
253,-0.63,-0.87,0.52,0.10,-0.27,0.99
254,-1.21,-1.86,0.58,0.10,-0.28,1.00
255,-1.59,-1.88,0.61,0.11,-0.28,1.00
256,-1.34,-1.36,0.60,0.11,-0.28,1.02
257,-1.08,0.05,0.64,0.11,-0.29,1.02
258,-0.58,0.67,0.67,0.11,-0.29,1.03
259,-0.58,0.53,0.49,0.11,-0.29,1.02
260,-0.20,0.90,0.52,0.11,-0.30,1.02
261,-0.43,1.59,0.44,0.12,-0.30,1.03
262,-0.17,1.91,0.29,0.11,-0.30,1.02
263,-0.32,2.17,0.18,0.11,-0.29,1.02
264,-0.37,1.86,0.38,0.10,-0.29,1.01
265,-0.46,0.85,0.78,0.09,-0.30,1.00
266,-0.79,0.40,0.85,0.10,-0.28,1.01
267,-0.98,0.15,0.76,0.10,-0.29,1.00
268,-1.07,0.20,0.50,0.11,-0.29,1.00
269,-1.21,-0.14,-0.02,0.11,-0.29,1.00
270,-0.85,-1.30,-0.24,0.11,-0.30,1.01
271,-0.81,-2.20,-0.37,0.10,-0.30,1.01
272,-0.73,-2.35,-0.69,0.11,-0.30,1.02
273,-0.66,-1.92,-0.56,0.11,-0.30,1.03
274,-0.98,-1.25,-0.24,0.11,-0.30,1.03
275,-1.22,-0.85,0.02,0.10,-0.30,1.04
276,-1.13,-0.53,0.37,0.11,-0.30,1.03
277,-1.08,0.17,0.50,0.12,-0.30,1.03
278,-0.87,0.89,0.44,0.12,-0.30,1.04
279,-0.49,1.36,-0.03,0.12,-0.30,1.03
280,-0.23,1.27,0.08,0.12,-0.29,1.03
281,0.05,1.66,-0.02,0.11,-0.29,1.02
282,0.00,1.88,-0.32,0.11,-0.30,1.02
283,-0.31,1.33,-0.20,0.09,-0.29,1.01
284,-0.50,0.31,-0.32,0.09,-0.29,1.00
285,-1.54,-0.21,-0.18,0.10,-0.29,1.00
286,-1.89,-0.73,-0.64,0.10,-0.28,0.99
287,-2.09,-0.70,-0.90,0.10,-0.29,1.00
288,-2.31,-1.83,-0.93,0.09,-0.28,1.00
289,-1.63,-2.81,-0.46,0.08,-0.29,1.01
290,1.08,-11.83,-0.35,0.02,-0.30,1.06
291,0.76,-7.08,0.34,0.11,-0.30,1.00
292,0.02,1.05,0.58,0.14,-0.29,1.01
293,-0.09,-0.63,0.29,0.11,-0.30,1.01
294,-0.09,-4.76,0.02,0.09,-0.29,1.01
295,0.87,-3.13,1.33,0.10,-0.27,1.00
296,4.14,-1.22,2.66,0.10,-0.22,1.00
297,8.73,1.42,3.63,0.12,-0.18,0.94
298,11.82,-2.34,0.73,0.12,-0.18,0.90
299,12.32,-3.79,-3.16,0.17,-0.16,0.85
300,14.93,4.17,-7.19,0.21,-0.18,0.83
301,15.25,4.21,-11.79,0.19,-0.18,0.87
302,10.66,5.19,-15.69,0.21,-0.23,0.86
303,23.48,15.62,-17.94,0.19,-0.38,0.86
304,5.24,10.43,-19.08,0.10,-0.14,0.96
305,11.80,5.79,-19.44,0.07,-0.31,0.98
306,10.49,4.90,-18.95,0.09,-0.25,1.02
307,10.55,-0.46,-18.67,0.06,-0.33,1.03
308,9.16,-4.76,-17.56,0.06,-0.30,1.08
309,6.89,-11.56,-18.53,0.08,-0.32,1.09
310,5.63,-11.15,-18.46,0.11,-0.32,1.10
311,4.64,-14.11,-17.91,0.08,-0.34,1.12
312,4.85,-12.96,-16.43,0.10,-0.35,1.12
313,2.99,-8.35,-13.42,0.08,-0.35,1.11
314,-0.05,-9.73,-9.77,0.03,-0.34,1.13
315,-1.11,-10.27,-5.42,0.02,-0.35,1.13
316,-2.89,-6.37,0.18,0.03,-0.35,1.11
317,-5.59,-1.11,5.04,0.04,-0.33,1.09
318,-7.05,3.97,9.74,0.04,-0.33,1.08
319,-8.32,7.98,13.07,0.05,-0.33,1.09
320,-9.50,10.38,15.50,0.05,-0.32,1.08
321,-10.27,11.56,17.59,0.05,-0.33,1.06
322,-10.17,11.25,19.42,0.05,-0.32,1.05
323,-9.45,7.92,20.43,0.05,-0.32,1.02
324,-9.56,4.44,20.53,0.06,-0.31,1.01
325,-9.08,2.49,20.66,0.07,-0.31,1.00
326,-8.41,-2.95,19.36,0.08,-0.30,0.99
327,-8.23,-7.89,17.98,0.10,-0.30,0.98
328,-7.24,-11.33,16.81,0.10,-0.30,0.97
329,-6.84,-12.76,15.40,0.13,-0.29,0.98
330,-6.15,-13.94,13.98,0.15,-0.29,1.00
331,-5.37,-12.89,13.04,0.16,-0.29,1.00
332,-5.25,-11.79,11.63,0.16,-0.28,0.99
333,-5.42,-10.72,10.63,0.17,-0.29,0.99
334,-5.59,-9.68,9.74,0.17,-0.28,0.99
335,-5.95,-9.33,8.70,0.17,-0.29,1.01
336,-6.35,-8.26,7.66,0.17,-0.29,1.01
337,-6.38,-8.72,6.70,0.16,-0.29,1.02
338,-6.06,-8.00,5.97,0.17,-0.29,1.02
339,-5.71,-6.05,5.56,0.17,-0.30,1.03
340,-4.99,-4.64,5.08,0.17,-0.30,1.04
341,-4.20,-2.99,4.55,0.16,-0.30,1.07
342,-3.39,-0.64,4.21,0.16,-0.30,1.06
343,-2.73,0.90,3.51,0.16,-0.31,1.07
344,-1.73,1.65,2.84,0.17,-0.30,1.07
345,-1.77,3.07,2.35,0.15,-0.29,1.05
346,-1.98,3.83,2.78,0.14,-0.29,1.04
347,-2.23,4.41,3.11,0.13,-0.29,1.03
348,-2.35,5.28,3.56,0.14,-0.29,1.02
349,-1.82,5.98,4.06,0.14,-0.28,1.01
350,-1.77,5.85,3.56,0.14,-0.28,1.02
351,-1.69,9.51,3.62,0.15,-0.28,1.00
352,-1.30,11.50,3.39,0.14,-0.28,1.01
353,-1.31,9.07,2.35,0.13,-0.28,1.01
354,-1.27,6.24,0.73,0.12,-0.29,1.01
355,-0.69,3.95,-0.32,0.11,-0.29,1.01
356,-0.43,2.02,-0.76,0.10,-0.29,1.01
357,-0.58,1.66,-0.84,0.10,-0.29,1.01
358,-0.79,1.10,-0.78,0.09,-0.30,1.01
359,-0.49,2.47,-0.03,0.09,-0.30,1.02
360,-0.02,1.02,0.61,0.07,-0.30,1.02
361,0.17,0.50,1.25,0.08,-0.30,1.01
362,0.49,1.48,1.89,0.09,-0.30,1.02
363,0.87,0.98,2.20,0.10,-0.30,1.02
364,1.37,1.19,2.50,0.10,-0.30,1.01
365,1.34,2.47,3.15,0.11,-0.29,1.01
366,1.51,2.84,3.47,0.11,-0.29,1.02
367,1.53,2.38,3.37,0.11,-0.29,0.99
368,1.11,2.50,3.40,0.10,-0.29,1.00
369,0.78,1.45,3.71,0.10,-0.29,1.00
370,0.58,0.20,3.60,0.10,-0.29,1.00
371,0.47,0.43,3.80,0.11,-0.29,0.99
372,0.12,1.63,4.26,0.10,-0.29,0.99
373,0.21,2.81,4.44,0.12,-0.29,1.00
374,0.41,4.55,4.38,0.12,-0.29,1.01
375,0.40,4.06,4.41,0.12,-0.29,1.00
376,0.35,3.19,3.82,0.11,-0.29,1.00
377,-0.08,2.11,3.44,0.11,-0.29,0.99
378,-0.08,1.13,3.11,0.11,-0.29,0.99
379,-0.14,0.38,2.46,0.11,-0.30,1.00
380,-0.52,0.92,2.50,0.11,-0.30,1.00
381,-0.38,0.66,2.18,0.12,-0.30,1.01
382,-0.21,0.08,1.63,0.12,-0.30,1.01
383,0.00,-0.18,1.27,0.12,-0.30,1.00
384,-0.12,-0.55,1.07,0.11,-0.30,1.01
385,-0.18,-0.63,1.39,0.11,-0.29,1.00
386,-0.05,-0.05,1.69,0.10,-0.30,1.00
387,-0.14,0.34,1.85,0.12,-0.30,1.01
388,-0.02,0.96,2.03,0.11,-0.29,1.01
389,0.23,1.60,2.12,0.12,-0.30,1.00
390,-0.12,1.74,1.92,0.12,-0.30,1.00
391,-0.05,1.31,1.98,0.12,-0.30,1.00
392,0.02,1.10,1.50,0.12,-0.30,1.00
393,-0.26,-0.32,1.02,0.11,-0.30,1.00
394,-0.49,-0.20,1.34,0.12,-0.30,1.01
395,-0.44,2.08,1.40,0.13,-0.30,1.02
396,-0.55,1.36,0.53,0.12,-0.31,1.02
397,0.67,-1.91,-0.38,0.11,-0.31,1.03
398,1.89,-1.65,0.02,0.12,-0.31,1.01
399,1.79,1.31,0.56,0.12,-0.31,1.01
400,1.30,1.92,1.25,0.11,-0.31,1.02
401,0.92,1.13,1.40,0.11,-0.30,1.03
402,0.76,0.18,1.56,0.12,-0.31,1.03
403,1.02,-0.23,1.36,0.12,-0.31,1.03
404,1.57,1.11,1.45,0.14,-0.31,1.04
405,2.09,3.98,2.05,0.14,-0.31,1.05
406,2.38,6.35,2.26,0.14,-0.30,1.04
407,2.32,7.94,2.44,0.14,-0.31,1.03
408,2.37,9.27,2.24,0.13,-0.30,1.02
409,2.50,9.08,1.27,0.13,-0.30,1.01
410,2.20,8.38,0.63,0.12,-0.30,1.01
411,1.97,7.36,0.55,0.11,-0.29,1.00
412,1.73,6.17,0.35,0.10,-0.29,1.00
413,1.71,5.63,0.61,0.10,-0.30,1.00
414,1.71,5.44,0.76,0.09,-0.29,0.99
415,1.62,5.07,0.93,0.09,-0.30,0.99
416,1.19,3.94,0.84,0.10,-0.29,0.99
417,0.95,2.96,0.58,0.09,-0.29,0.99
418,0.73,1.65,0.46,0.09,-0.29,0.99
419,0.46,1.21,0.40,0.09,-0.29,1.00
420,0.81,0.55,0.00,0.10,-0.29,1.00
421,0.72,0.67,-0.17,0.10,-0.30,1.01
422,0.93,0.58,-0.35,0.10,-0.30,1.02
423,1.28,0.02,-0.20,0.08,-0.31,1.02
424,1.50,-0.89,0.49,0.08,-0.31,1.02
425,1.63,-0.15,0.78,0.08,-0.32,1.03
426,1.68,0.34,1.34,0.09,-0.32,1.03
427,2.32,0.89,1.66,0.08,-0.32,1.04
428,2.76,1.53,2.60,0.07,-0.32,1.04
429,3.59,2.44,3.22,0.08,-0.32,1.05
430,4.43,3.18,3.76,0.07,-0.32,1.04
431,4.95,3.60,4.20,0.08,-0.32,1.04
432,4.92,4.55,5.36,0.07,-0.31,1.02
433,4.93,4.09,6.38,0.05,-0.32,1.01
434,5.25,4.84,7.63,0.07,-0.31,1.00
435,4.96,5.25,7.74,0.08,-0.30,0.98
436,5.07,5.69,7.45,0.10,-0.31,0.98
437,5.21,6.55,7.10,0.11,-0.30,0.99
438,5.69,6.58,6.66,0.11,-0.30,0.98
439,5.80,7.01,6.63,0.11,-0.31,0.98
440,5.85,7.57,6.72,0.09,-0.30,0.99
441,5.95,8.03,7.30,0.08,-0.32,0.99
442,4.40,12.06,8.55,0.06,-0.33,0.97
443,1.94,16.37,10.98,0.01,-0.33,0.96
444,1.86,10.41,12.82,-0.07,-0.36,0.98
445,0.49,8.67,15.80,-0.11,-0.38,0.97
446,-1.71,7.92,20.34,-0.15,-0.39,0.98
447,-6.24,2.82,26.12,-0.22,-0.38,1.00
448,-0.85,0.35,32.70,-0.26,-0.45,0.98
449,0.93,-11.80,37.98,-0.30,-0.43,1.02
450,2.96,-15.51,44.46,-0.24,-0.41,0.98
451,1.25,-21.40,47.48,-0.19,-0.39,0.99
452,6.90,-23.53,48.24,-0.15,-0.40,0.98
453,10.21,-29.21,47.57,-0.12,-0.40,0.95
454,11.39,-32.78,44.72,-0.09,-0.41,0.93
455,10.38,-36.40,40.82,-0.10,-0.44,0.94
456,7.83,-42.79,40.93,-0.21,-0.45,0.95
457,5.56,-49.16,45.50,-0.30,-0.45,1.01
458,-4.37,-48.44,50.73,-0.38,-0.50,1.04
459,16.06,-61.42,61.85,-0.43,-0.51,1.01
460,17.98,-58.61,69.85,-0.39,-0.59,1.05
461,14.95,-54.47,78.31,-0.38,-0.52,1.02
462,23.59,-49.33,84.85,-0.39,-0.56,1.02
463,27.71,-53.77,89.33,-0.42,-0.57,1.03
464,29.98,-58.09,93.50,-0.44,-0.56,1.01
465,38.27,-60.72,99.88,-0.42,-0.61,0.96
466,40.09,-64.89,103.85,-0.45,-0.61,0.94
467,39.66,-71.04,108.37,-0.45,-0.61,0.90
468,37.62,-74.00,112.50,-0.44,-0.62,0.90
469,39.19,-75.48,120.53,-0.42,-0.63,0.89
470,37.36,-79.21,125.66,-0.39,-0.64,0.89
471,35.92,-88.53,128.44,-0.37,-0.65,0.91
472,35.63,-100.00,131.71,-0.36,-0.66,0.93
473,37.66,-107.60,135.94,-0.31,-0.64,0.95
474,42.41,-117.73,138.99,-0.27,-0.64,0.97
475,46.26,-121.83,140.95,-0.19,-0.64,0.96
476,53.36,-134.63,143.68,-0.19,-0.65,0.96
477,57.37,-152.81,141.22,-0.10,-0.61,0.90
478,61.54,-155.39,138.82,-0.07,-0.64,0.90
479,57.71,-123.50,143.39,0.06,-0.60,0.79
480,55.05,-112.46,146.67,0.00,-0.61,0.84
481,53.95,-104.84,149.91,0.02,-0.59,0.84
482,53.85,-100.37,151.47,0.04,-0.60,0.85
483,54.84,-90.89,153.91,0.05,-0.61,0.85
484,53.89,-96.84,154.58,0.01,-0.68,0.94
485,54.41,-96.47,158.95,-0.01,-0.61,0.90
486,54.32,-97.88,159.91,0.04,-0.62,0.90
487,51.53,-96.55,161.34,0.07,-0.61,0.88
488,48.29,-95.45,163.10,0.10,-0.59,0.88
489,46.84,-96.05,163.83,0.13,-0.59,0.87
490,47.57,-106.70,162.70,0.12,-0.58,0.92
491,47.08,-101.15,165.95,0.20,-0.57,0.90
492,45.83,-102.63,167.51,0.23,-0.55,0.92
493,46.32,-98.50,167.48,0.32,-0.55,0.87
494,48.31,-86.79,169.65,0.35,-0.56,0.88
495,50.31,-88.66,170.99,0.29,-0.56,0.96
496,51.94,-95.47,171.98,0.29,-0.58,0.96
497,54.20,-91.56,175.13,0.34,-0.57,0.90
498,54.84,-87.54,177.54,0.37,-0.55,0.90
499,54.24,-81.57,178.81,0.39,-0.54,0.88
500,54.61,-79.22,178.93,0.39,-0.52,0.89
501,53.76,-79.16,178.40,0.42,-0.50,0.83
502,52.44,-62.67,179.68,0.52,-0.46,0.76
503,48.99,-64.11,175.51,0.45,-0.48,0.84
504,46.44,-84.55,170.92,0.45,-0.46,0.79
505,47.71,-99.85,166.73,0.51,-0.42,0.73
506,45.19,-90.12,165.50,0.61,-0.42,0.69
507,37.73,-74.60,165.01,0.60,-0.45,0.73
508,35.45,-77.59,165.66,0.54,-0.48,0.82
509,38.89,-87.86,164.44,0.56,-0.51,0.87
510,39.76,-88.24,162.06,0.63,-0.49,0.87
511,40.64,-84.40,159.97,0.69,-0.48,0.84
512,43.91,-87.36,157.16,0.65,-0.49,0.85
513,45.25,-82.37,156.14,0.70,-0.47,0.79
514,44.96,-62.60,157.04,0.76,-0.46,0.73
515,43.68,-51.80,159.44,0.69,-0.45,0.76
516,44.82,-41.82,162.72,0.72,-0.46,0.73
517,41.66,-40.34,163.07,0.73,-0.46,0.72
518,38.85,-35.85,163.24,0.74,-0.46,0.71
519,38.60,-26.85,164.29,0.80,-0.45,0.70
520,35.71,-19.53,164.11,0.82,-0.46,0.69
521,33.24,-16.79,164.12,0.79,-0.45,0.71
522,33.07,-9.02,164.63,0.81,-0.45,0.72
523,34.92,0.87,165.54,0.82,-0.45,0.75
524,37.21,14.70,166.17,0.84,-0.47,0.76
525,39.65,27.34,168.47,0.83,-0.47,0.77
526,35.80,58.50,168.02,0.85,-0.48,0.83
527,42.03,114.89,173.97,0.85,-0.48,0.77
528,50.03,43.04,168.14,0.58,-0.39,0.73
529,-24.24,-15.91,140.89,0.59,-0.24,0.71
530,-83.33,131.08,145.95,1.21,-0.37,0.54
531,-71.57,176.32,158.34,0.69,-0.49,1.12
532,-24.96,81.62,151.50,0.43,-0.64,1.30
533,-9.57,12.81,137.25,0.73,-0.62,1.10
534,8.38,-49.48,126.70,0.67,-0.54,1.05
535,18.41,-59.62,122.92,0.73,-0.51,0.79
536,25.15,-93.92,113.45,0.69,-0.44,0.76
537,28.31,-98.99,112.02,0.74,-0.44,0.69
538,33.04,-109.28,104.44,0.77,-0.41,0.63
539,11.62,-62.76,111.62,0.88,-0.24,0.73
540,-2.61,-14.96,113.73,0.85,-0.39,0.75
541,-14.37,66.64,120.81,0.94,-0.43,0.80
542,-20.46,105.86,121.63,0.78,-0.49,1.03
543,-10.49,81.27,114.21,0.59,-0.51,1.11
544,-1.59,54.78,104.56,0.69,-0.52,1.07
545,4.95,51.45,97.42,0.71,-0.52,0.99
546,4.75,56.00,96.03,0.69,-0.48,0.96
547,7.39,62.17,93.62,0.66,-0.46,0.92
548,-4.11,78.69,90.35,0.67,-0.39,0.87
549,-5.98,130.49,93.15,0.77,-0.41,0.81
550,-24.61,184.89,100.67,0.80,-0.38,0.86
551,-39.60,65.68,61.53,0.23,-0.44,1.33
552,-16.47,-28.18,35.34,0.34,-0.53,1.28
553,-3.27,-76.00,15.04,0.53,-0.47,1.03
554,12.26,-80.90,10.00,0.62,-0.46,0.88
555,20.12,-127.92,-2.92,0.32,-0.45,0.96
556,21.48,-192.00,-16.43,0.33,-0.41,0.92
557,15.76,-175.33,-9.53,0.57,-0.39,0.82
558,-1.97,-89.51,3.56,0.67,-0.35,0.74
559,-16.27,-10.64,16.41,0.64,-0.37,0.82
560,-42.32,19.39,17.02,0.49,-0.39,0.87
561,-20.18,18.95,21.04,0.42,-0.52,0.98
562,-18.09,-23.82,9.80,0.30,-0.46,1.00
563,-12.49,-21.42,8.15,0.43,-0.45,0.93
564,-9.45,-28.87,4.46,0.34,-0.44,0.96
565,-0.23,-18.34,7.85,0.41,-0.43,0.90
566,4.11,-35.04,3.62,0.30,-0.43,0.99
567,4.09,-21.44,5.36,0.43,-0.38,0.86
568,3.11,-1.98,5.94,0.44,-0.39,0.87
569,6.46,-1.48,5.86,0.37,-0.39,0.85
570,6.35,-15.39,1.19,0.34,-0.40,0.88
571,6.43,-10.85,1.31,0.33,-0.36,0.88
572,6.50,-18.85,-3.39,0.33,-0.40,0.94
573,5.83,-25.91,-6.08,0.25,-0.36,0.92
574,5.94,-8.63,-4.31,0.42,-0.37,0.83
575,5.08,-28.27,-9.65,0.25,-0.39,0.94
576,2.23,-14.85,-6.49,0.34,-0.36,0.87
577,-1.63,-5.45,-5.30,0.32,-0.38,0.91
578,-0.64,3.05,-2.52,0.32,-0.39,0.91
579,-0.82,2.49,-2.56,0.30,-0.39,0.92
580,-2.67,4.93,-2.15,0.32,-0.38,0.90
581,-3.76,3.54,-3.30,0.31,-0.39,0.91
582,-3.76,3.80,-4.00,0.31,-0.39,0.92
