,gyro_x,gyro_y,gyro_z,acce_x,acce_y,acce_z
0,0.96,0.41,0.11,-0.37,0.97,"29.89[0m
"
1,1.19,1.73,1.15,0.12,-0.37,0.97
2,1.51,3.11,1.74,0.10,-0.38,0.97
3,1.37,4.63,2.43,0.11,-0.38,0.98
4,1.39,5.94,3.40,0.10,-0.38,0.98
5,1.24,6.78,4.18,0.10,-0.38,0.98
6,1.28,7.18,4.72,0.11,-0.38,0.98
7,1.47,7.69,4.66,0.11,-0.38,0.98
8,1.10,8.03,4.82,0.12,-0.37,0.98
9,0.85,8.02,5.02,0.12,-0.37,0.98
10,0.99,8.37,5.13,0.12,-0.37,0.99
11,1.24,7.18,4.73,0.12,-0.38,0.98
12,1.62,7.18,4.05,0.14,-0.38,0.98
13,2.05,7.36,3.28,0.15,-0.38,0.99
14,2.18,7.71,2.38,0.14,-0.39,0.99
15,2.55,7.37,1.89,0.13,-0.38,0.97
16,2.67,8.11,1.65,0.13,-0.38,0.97
17,2.58,8.50,1.31,0.12,-0.37,0.96
18,2.26,8.34,1.37,0.11,-0.38,0.94
19,1.82,7.71,1.13,0.11,-0.37,0.95
20,1.36,7.42,0.49,0.12,-0.37,0.95
21,0.96,7.30,0.53,0.11,-0.38,0.94
22,0.89,7.31,0.24,0.11,-0.37,0.95
23,0.82,7.13,0.05,0.10,-0.36,0.95
24,0.69,6.66,0.00,0.09,-0.35,0.95
25,0.69,6.38,0.32,0.09,-0.35,0.96
26,0.64,5.39,0.64,0.08,-0.35,0.96
27,0.76,4.76,0.67,0.09,-0.36,0.98
28,1.22,3.47,0.79,0.09,-0.35,0.98
29,1.44,2.92,0.21,0.10,-0.35,0.99
30,1.54,2.29,-0.17,0.11,-0.35,0.99
31,1.24,1.40,-0.63,0.12,-0.35,1.00
32,1.51,0.82,-1.28,0.11,-0.34,0.98
33,1.88,0.35,-1.40,0.11,-0.35,0.99
34,1.89,1.94,-1.45,0.11,-0.34,0.99
35,2.11,2.61,-1.01,0.10,-0.35,0.99
36,2.02,2.99,-0.87,0.10,-0.34,0.99
37,1.59,2.82,-0.50,0.09,-0.34,0.98
38,1.07,2.49,-0.50,0.10,-0.33,0.96
39,0.47,1.27,-0.76,0.09,-0.33,0.97
40,0.21,-0.11,-0.75,0.09,-0.33,0.97
41,-0.35,-0.73,-0.99,0.09,-0.34,0.97
42,-0.56,-0.99,-0.60,0.09,-0.34,0.97
43,-0.76,-1.34,-0.47,0.08,-0.34,0.98
44,-0.92,-1.33,-0.70,0.09,-0.34,0.98
45,-0.93,-1.92,-0.92,0.09,-0.35,0.98
46,-1.07,-2.67,-1.08,0.08,-0.35,0.99
47,-1.22,-2.95,-0.60,0.07,-0.36,1.00
48,-1.01,-3.04,-0.21,0.07,-0.36,1.01
49,-0.60,-2.72,0.17,0.07,-0.36,1.01
50,-0.38,-1.86,0.92,0.07,-0.37,1.01
51,0.05,-1.86,1.42,0.07,-0.37,1.00
52,0.20,-1.65,2.14,0.07,-0.38,1.00
53,0.43,-1.45,2.43,0.07,-0.37,1.00
54,0.64,-1.42,2.93,0.08,-0.37,0.99
55,0.66,-1.53,3.51,0.07,-0.37,0.98
56,0.27,-0.47,3.66,0.08,-0.36,0.98
57,-0.05,-1.39,3.71,0.07,-0.35,0.96
58,0.50,-2.98,3.27,0.08,-0.35,0.95
59,-0.06,-4.15,2.73,0.08,-0.35,0.94
60,-0.35,-4.90,2.78,0.08,-0.35,0.94
61,-0.70,-6.95,2.58,0.09,-0.35,0.93
62,-0.79,-7.86,2.32,0.09,-0.35,0.93
63,-0.99,-8.61,2.02,0.09,-0.35,0.95
64,-0.89,-9.31,1.77,0.10,-0.36,0.96
65,-1.30,-9.51,1.80,0.11,-0.36,0.95
66,-1.40,-8.73,2.11,0.11,-0.36,0.97
67,-1.66,-8.27,2.53,0.12,-0.37,0.97
68,-2.02,-8.24,2.34,0.13,-0.38,0.98
69,-2.55,-8.24,2.15,0.13,-0.37,0.99
70,-2.23,-7.66,2.44,0.13,-0.37,1.02
71,-1.60,-6.73,2.64,0.14,-0.37,1.02
72,-1.85,-5.42,2.96,0.14,-0.38,1.01
73,-0.44,0.05,3.71,0.16,-0.39,1.03
74,0.38,-4.81,2.93,0.13,-0.38,1.05
75,1.71,-4.11,2.75,0.15,-0.38,1.02
76,2.56,-1.85,3.31,0.15,-0.37,1.00
77,0.93,-1.77,3.63,0.15,-0.36,0.98
78,0.21,-3.27,3.16,0.14,-0.36,0.97
79,-0.08,-4.53,2.55,0.15,-0.36,0.98
80,-0.64,-5.02,1.37,0.16,-0.36,0.97
81,-0.96,-4.75,0.76,0.16,-0.35,0.97
82,-0.92,-3.98,0.56,0.16,-0.36,0.96
83,-1.07,-2.93,0.58,0.16,-0.36,0.98
84,-1.15,-2.31,0.50,0.15,-0.36,0.98
85,-1.45,-2.12,0.70,0.15,-0.37,0.98
86,-1.45,-2.20,0.66,0.14,-0.37,0.99
87,-1.68,-1.73,0.82,0.14,-0.37,1.00
88,-1.25,-0.79,0.96,0.15,-0.38,1.02
89,-1.24,-0.12,0.56,0.15,-0.39,1.03
90,-0.81,1.33,0.64,0.14,-0.38,1.02
91,-0.47,3.30,0.63,0.15,-0.38,1.02
92,-0.26,4.89,0.52,0.14,-0.38,1.02
93,-0.58,3.91,0.52,0.13,-0.37,1.01
94,-0.64,5.27,0.63,0.14,-0.38,1.01
95,0.11,8.15,1.28,0.13,-0.38,0.99
96,-0.95,3.19,-0.03,0.11,-0.37,1.01
97,-0.50,4.37,-0.55,0.13,-0.38,1.00
98,0.53,6.15,0.03,0.12,-0.38,1.00
99,0.24,5.50,0.32,0.11,-0.38,1.01
100,0.27,5.95,0.73,0.10,-0.39,1.02
101,0.20,6.17,1.16,0.09,-0.38,1.01
102,0.41,6.67,1.60,0.10,-0.39,1.01
103,0.69,6.11,1.80,0.09,-0.39,1.00
104,0.50,5.31,2.05,0.08,-0.39,1.01
105,0.53,4.82,2.20,0.08,-0.39,1.00
106,0.89,4.73,2.47,0.08,-0.38,1.00
107,0.89,5.18,2.50,0.10,-0.38,1.00
108,1.22,6.03,2.64,0.10,-0.37,0.99
109,1.77,6.84,2.67,0.11,-0.38,0.99
110,1.86,6.37,2.43,0.10,-0.38,0.99
111,1.77,5.68,1.95,0.10,-0.38,0.98
112,2.09,5.88,1.56,0.11,-0.37,0.99
113,2.09,4.89,1.39,0.10,-0.36,0.99
114,1.66,4.00,0.95,0.10,-0.37,0.98
115,1.05,3.86,0.99,0.09,-0.37,0.98
116,1.22,3.18,0.82,0.09,-0.37,0.97
117,1.27,2.09,0.56,0.09,-0.37,0.98
118,0.81,1.68,0.79,0.09,-0.37,0.97
119,0.44,1.05,0.82,0.08,-0.37,0.97
120,0.73,0.70,1.13,0.08,-0.37,0.98
121,0.27,0.69,2.03,0.09,-0.37,0.97
122,0.23,0.78,1.94,0.09,-0.37,0.98
123,0.17,0.55,1.92,0.10,-0.36,0.97
124,0.31,0.21,1.69,0.10,-0.37,0.98
125,0.32,0.12,1.31,0.10,-0.37,0.99
126,0.31,0.11,1.28,0.11,-0.37,0.99
127,0.26,-0.08,0.99,0.11,-0.37,0.99
128,0.37,1.07,0.64,0.11,-0.37,1.00
129,0.58,1.37,0.34,0.11,-0.37,1.01
130,0.26,0.61,0.29,0.10,-0.37,0.99
131,0.32,-0.66,-0.14,0.09,-0.37,0.99
132,0.41,-0.85,0.03,0.09,-0.37,0.98
133,0.46,-0.64,0.34,0.09,-0.36,1.00
134,0.53,-0.72,0.29,0.09,-0.37,1.00
135,0.64,-1.13,0.31,0.09,-0.37,1.00
136,0.76,-0.96,0.52,0.09,-0.37,0.99
137,0.99,-1.13,0.66,0.09,-0.38,0.99
138,0.93,-1.19,0.93,0.09,-0.37,1.00
139,1.02,-0.85,1.47,0.09,-0.37,0.99
140,0.75,-0.69,1.42,0.09,-0.37,0.99
141,0.47,-1.13,1.07,0.10,-0.37,0.99
142,0.40,-1.36,1.02,0.10,-0.38,0.99
143,0.23,-2.29,1.18,0.09,-0.37,0.99
144,0.15,-2.93,0.56,0.09,-0.37,0.98
145,0.43,-3.22,0.55,0.10,-0.36,0.98
146,0.23,-3.56,0.38,0.10,-0.36,0.98
147,0.27,-3.57,0.26,0.09,-0.36,0.97
148,0.34,-3.16,0.52,0.09,-0.37,0.96
149,-0.17,-4.27,0.37,0.10,-0.36,0.97
150,0.23,-4.81,0.15,0.10,-0.36,0.98
151,0.20,-4.29,0.32,0.11,-0.37,0.99
152,-0.09,-4.02,0.21,0.10,-0.37,0.98
153,-0.38,-3.28,0.52,0.11,-0.37,0.99
154,-0.17,-2.37,0.73,0.11,-0.37,1.00
155,0.00,-2.87,0.81,0.10,-0.36,1.00
156,0.37,-3.11,0.76,0.10,-0.37,1.00
157,0.63,-2.46,1.01,0.11,-0.37,0.99
158,0.43,-2.52,0.70,0.11,-0.37,1.00
159,0.63,-2.35,0.79,0.12,-0.37,1.00
160,0.40,-2.38,0.60,0.11,-0.37,0.98
161,0.02,-2.32,0.78,0.11,-0.37,0.97
162,-0.15,-2.27,0.93,0.11,-0.37,0.98
163,-0.12,-1.77,0.82,0.11,-0.37,0.99
164,-0.26,-0.84,1.31,0.12,-0.37,0.98
165,0.05,-0.14,1.45,0.11,-0.38,0.99
166,0.29,0.34,2.06,0.11,-0.38,0.99
167,0.41,0.78,2.27,0.11,-0.37,0.99
168,0.49,1.25,2.49,0.12,-0.38,0.99
169,0.40,0.61,2.09,0.11,-0.36,0.99
170,0.44,-0.03,1.65,0.11,-0.37,0.99
171,0.58,-0.21,1.27,0.11,-0.37,0.99
172,0.32,-0.49,1.19,0.11,-0.37,0.98
173,0.41,-0.47,1.31,0.11,-0.37,0.97
174,0.66,-0.02,1.18,0.11,-0.36,0.97
175,0.23,0.89,1.34,0.11,-0.36,0.97
176,0.15,1.16,1.33,0.11,-0.37,0.97
177,0.29,1.01,1.42,0.11,-0.37,0.97
178,0.06,0.08,1.25,0.10,-0.37,0.99
179,0.05,-0.73,1.25,0.10,-0.38,0.99
180,-0.11,-1.13,1.40,0.11,-0.37,0.99
181,0.00,-0.66,1.56,0.11,-0.38,1.00
182,0.27,-0.24,1.57,0.11,-0.38,1.00
183,0.43,0.58,1.57,0.11,-0.39,1.00
184,0.52,0.53,1.54,0.10,-0.38,1.01
185,0.46,-0.09,1.42,0.10,-0.38,1.00
186,0.95,1.50,2.00,0.11,-0.37,1.01
187,1.19,1.30,1.80,0.11,-0.38,1.00
188,0.85,0.15,1.24,0.11,-0.38,1.00
189,1.08,0.56,1.24,0.12,-0.37,0.99
190,1.34,0.09,0.84,0.11,-0.37,1.00
191,1.18,0.53,0.89,0.12,-0.37,0.98
192,1.08,1.40,1.02,0.11,-0.37,0.98
193,0.73,1.34,1.07,0.11,-0.37,0.98
194,0.47,0.44,1.13,0.10,-0.36,0.99
195,0.29,-0.69,1.11,0.10,-0.37,0.99
196,0.49,-0.85,1.27,0.11,-0.38,1.00
197,0.75,0.31,1.60,0.11,-0.38,1.00
198,0.85,1.02,1.56,0.11,-0.38,1.01
199,1.48,0.92,1.63,0.10,-0.38,1.01
200,1.19,1.05,2.02,0.10,-0.37,1.01
201,1.27,1.21,2.15,0.10,-0.37,1.00
202,1.02,-0.09,1.91,0.10,-0.37,1.00
203,0.64,-0.26,1.69,0.11,-0.36,0.99
204,0.67,-0.24,1.62,0.12,-0.37,0.99
205,0.67,0.21,1.45,0.11,-0.37,0.98
206,0.50,-0.15,1.39,0.12,-0.37,0.98
207,0.81,-0.11,1.19,0.12,-0.37,0.98
208,0.75,0.66,1.11,0.11,-0.37,0.99
209,0.46,0.73,1.10,0.11,-0.36,0.98
210,0.50,-0.23,0.78,0.11,-0.37,0.99
211,-0.02,-0.76,0.63,0.10,-0.36,0.98
212,0.21,-0.60,0.67,0.11,-0.36,0.98
213,0.09,-0.82,0.66,0.10,-0.37,0.98
214,-0.05,-1.05,0.69,0.10,-0.37,0.97
215,0.02,-1.77,1.01,0.09,-0.36,0.99
216,0.06,-2.00,1.02,0.11,-0.37,0.97
217,-0.17,-2.00,0.93,0.10,-0.36,0.98
218,-0.31,-1.82,0.87,0.11,-0.38,0.98
219,-0.06,-1.83,0.90,0.11,-0.38,0.98
220,-0.08,-2.14,0.82,0.12,-0.37,0.99
221,-0.02,-2.32,0.69,0.11,-0.37,0.99
222,0.03,-1.48,0.89,0.12,-0.37,0.99
223,0.09,-0.55,0.96,0.12,-0.36,1.00
224,-0.35,-1.02,0.73,0.11,-0.37,1.00
225,0.00,-0.96,0.87,0.11,-0.37,1.00
226,0.03,-0.90,0.60,0.11,-0.36,1.00
227,0.15,-0.72,0.72,0.11,-0.37,1.00
228,0.17,-0.53,0.67,0.10,-0.38,0.99
229,0.12,-0.34,0.95,0.11,-0.37,0.99
230,0.38,-0.96,0.95,0.10,-0.37,0.98
231,0.23,-0.58,1.01,0.11,-0.36,0.98
232,0.21,-0.66,1.24,0.11,-0.36,0.97
233,-0.32,-1.28,0.99,0.11,-0.36,0.97
234,-0.18,-1.73,0.93,0.10,-0.37,0.98
235,-0.03,-2.24,0.69,0.12,-0.36,0.98
236,0.41,-1.74,0.75,0.11,-0.37,1.00
237,0.75,-1.39,0.66,0.11,-0.37,0.99
238,0.66,-0.72,0.50,0.11,-0.37,0.99
239,0.79,0.17,0.72,0.12,-0.37,0.99
240,0.87,0.66,0.99,0.11,-0.37,0.99
241,0.67,0.26,1.08,0.10,-0.37,0.98
242,0.26,-1.33,1.28,0.09,-0.37,0.98
243,0.00,-1.19,1.34,0.11,-0.36,0.98
244,0.24,-0.72,1.44,0.11,-0.37,0.98
245,0.26,-1.28,1.24,0.11,-0.36,0.97
246,0.31,-0.99,1.44,0.09,-0.36,0.97
247,0.56,-0.41,1.71,0.10,-0.36,0.98
248,0.35,-0.78,1.89,0.10,-0.36,0.97
249,0.50,-1.76,2.03,0.11,-0.36,0.97
250,0.12,-1.30,1.82,0.11,-0.36,0.97
251,-0.03,-1.56,1.54,0.12,-0.36,0.99
252,0.20,-1.39,1.19,0.11,-0.36,0.99
253,0.32,-1.47,0.82,0.11,-0.37,0.99
254,0.17,-1.10,0.85,0.12,-0.37,0.99
255,0.14,-0.99,0.93,0.11,-0.36,0.99
256,0.49,-1.62,0.92,0.10,-0.37,0.99
257,-0.05,-1.05,1.21,0.11,-0.36,0.99
258,0.03,-0.78,1.79,0.10,-0.37,0.99
259,0.20,-0.64,1.80,0.10,-0.37,0.99
260,0.75,-0.56,2.46,0.10,-0.37,1.00
261,0.85,0.23,2.99,0.10,-0.37,0.99
262,0.82,0.47,3.19,0.11,-0.36,0.99
263,0.79,0.24,3.30,0.11,-0.36,0.99
264,0.84,0.38,2.93,0.11,-0.37,0.99
265,0.34,0.03,2.58,0.12,-0.35,0.98
266,0.23,-0.46,2.43,0.12,-0.36,0.98
267,0.43,-1.82,1.91,0.12,-0.37,0.99
268,0.06,-1.76,1.89,0.13,-0.36,0.98
269,0.11,-1.45,1.76,0.13,-0.36,0.99
270,0.21,-1.77,1.31,0.13,-0.37,1.00
271,0.99,-1.27,1.31,0.13,-0.37,1.01
272,1.24,0.02,1.31,0.13,-0.38,1.01
273,1.48,1.01,1.39,0.12,-0.37,1.01
274,1.71,1.83,2.03,0.12,-0.37,1.01
275,1.80,2.35,2.14,0.11,-0.37,1.00
276,1.15,2.50,2.23,0.11,-0.36,0.99
277,0.99,2.09,2.44,0.10,-0.36,0.98
278,0.95,1.40,2.20,0.10,-0.36,0.98
279,1.04,0.41,1.89,0.10,-0.35,0.98
280,1.40,0.17,2.18,0.11,-0.36,0.97
281,1.36,0.12,2.23,0.11,-0.35,0.97
282,1.27,0.50,2.12,0.11,-0.35,0.97
283,1.51,-0.05,1.88,0.11,-0.36,0.96
284,1.36,0.15,1.85,0.11,-0.36,0.96
285,1.13,0.17,1.71,0.12,-0.36,0.96
286,0.40,-0.79,1.19,0.11,-0.36,0.97
287,-0.17,-1.83,0.70,0.10,-0.37,0.97
288,-0.55,-2.32,0.21,0.11,-0.37,0.97
289,-0.29,-3.13,0.02,0.10,-0.38,0.99
290,-0.12,-3.66,0.12,0.08,-0.38,1.00
291,0.12,-3.47,1.07,0.08,-0.38,1.01
292,0.60,-2.82,1.95,0.08,-0.39,1.01
293,1.42,-1.65,3.27,0.10,-0.38,1.01
294,1.79,-0.11,3.91,0.10,-0.38,1.01
295,2.06,1.13,4.17,0.10,-0.37,1.00
296,2.02,1.47,4.17,0.10,-0.37,0.99
297,1.66,0.50,3.80,0.10,-0.37,0.98
298,1.18,-0.82,3.47,0.11,-0.36,0.98
299,0.61,-1.89,3.37,0.10,-0.36,0.97
300,0.78,-2.93,2.75,0.11,-0.36,0.97
301,0.21,-3.50,2.49,0.11,-0.36,0.96
302,0.56,-3.76,2.50,0.11,-0.37,0.97
303,0.50,-3.73,2.69,0.11,-0.36,0.96
304,0.78,-3.05,3.11,0.11,-0.36,0.97
305,0.76,-2.66,3.69,0.11,-0.37,0.98
306,0.55,-2.73,3.88,0.11,-0.36,0.98
307,-0.35,-2.61,3.79,0.12,-0.36,1.00
308,0.00,-3.07,3.74,0.12,-0.37,0.99
309,0.56,-3.10,3.68,0.13,-0.36,0.99
310,0.49,-2.73,3.42,0.14,-0.36,1.00
311,0.44,-2.26,3.13,0.15,-0.36,1.00
312,0.35,-2.72,2.70,0.15,-0.36,0.99
313,0.29,-2.29,2.23,0.15,-0.36,0.99
314,0.38,-1.30,1.79,0.15,-0.36,0.99
315,0.38,-0.92,1.53,0.14,-0.36,0.99
316,0.02,-1.34,1.31,0.15,-0.36,0.99
317,0.15,-1.16,1.07,0.15,-0.36,1.01
318,0.35,-0.43,1.08,0.14,-0.37,0.99
319,0.34,0.38,1.05,0.14,-0.37,1.00
320,0.64,0.69,0.76,0.14,-0.36,1.00
321,0.46,0.08,0.92,0.13,-0.37,1.00
322,0.60,-0.26,0.81,0.13,-0.37,0.99
323,0.66,0.73,1.07,0.12,-0.36,0.99
324,0.53,1.53,1.19,0.13,-0.37,0.99
325,0.47,1.60,1.13,0.13,-0.37,0.99
326,0.66,1.28,1.31,0.12,-0.37,0.99
327,0.90,1.01,1.02,0.13,-0.38,0.98
328,1.07,0.46,0.78,0.12,-0.37,0.99
329,1.05,0.02,0.69,0.12,-0.37,0.99
330,0.92,-0.64,0.50,0.13,-0.37,0.99
331,0.96,-0.63,0.55,0.12,-0.37,1.00
332,0.92,-0.24,0.63,0.12,-0.37,0.99
333,0.69,0.56,1.04,0.12,-0.38,1.01
334,0.72,1.57,1.47,0.13,-0.38,1.01
335,0.95,1.54,1.42,0.13,-0.38,1.01
336,1.24,2.24,1.88,0.13,-0.37,1.00
337,0.67,2.43,1.82,0.13,-0.37,0.99
338,0.40,1.51,1.37,0.12,-0.36,0.99
339,0.40,1.44,0.44,0.13,-0.36,0.99
340,0.41,0.44,0.35,0.13,-0.36,0.99
341,0.87,-0.52,-0.23,0.14,-0.37,1.00
342,1.13,-0.79,-0.58,0.13,-0.37,0.99
343,0.99,0.17,-0.67,0.13,-0.37,0.99
344,1.10,0.58,-0.69,0.14,-0.37,0.99
345,0.69,0.63,-1.01,0.14,-0.37,0.99
346,0.63,0.40,-1.18,0.13,-0.37,0.99
347,0.44,0.18,-1.13,0.12,-0.37,1.00
348,0.64,-0.23,-1.07,0.12,-0.38,1.01
349,0.47,-0.12,-0.82,0.12,-0.37,1.00
350,0.56,0.27,-0.72,0.12,-0.37,1.00
351,1.04,0.73,-0.75,0.11,-0.38,1.01
352,0.95,1.13,-0.70,0.12,-0.37,1.00
353,0.82,1.82,-0.55,0.12,-0.37,1.00
354,0.76,0.64,-0.44,0.11,-0.37,1.00
355,0.84,0.20,-0.64,0.12,-0.38,1.00
356,1.11,-0.52,-0.87,0.11,-0.37,1.00
357,0.93,-1.36,-1.10,0.11,-0.37,0.99
358,0.90,-1.36,-1.07,0.11,-0.37,1.00
359,0.92,-1.10,-1.02,0.11,-0.37,1.00
360,1.56,-1.66,-1.08,0.10,-0.37,1.01
361,1.63,-0.75,-0.78,0.11,-0.37,1.00
362,1.24,0.29,-0.49,0.12,-0.37,1.00
363,1.21,-0.43,-0.44,0.10,-0.37,1.00
364,1.24,-1.44,-0.14,0.10,-0.37,0.99
365,1.07,-0.55,0.53,0.10,-0.37,0.99
366,1.13,-0.15,0.81,0.10,-0.37,0.99
367,1.07,-0.93,0.41,0.11,-0.36,0.99
368,1.25,-1.19,0.46,0.11,-0.37,0.98
369,1.44,-0.73,0.61,0.11,-0.36,0.98
370,1.27,-1.08,0.41,0.11,-0.36,0.99
371,1.10,-1.16,0.44,0.11,-0.36,0.98
372,1.22,-0.85,0.27,0.12,-0.36,0.98
373,0.87,-0.50,0.32,0.12,-0.35,0.97
374,0.41,-0.89,0.17,0.12,-0.36,0.98
375,0.09,-1.71,-0.05,0.10,-0.35,0.98
376,0.18,-1.89,-0.20,0.11,-0.35,0.96
377,0.32,-3.71,-0.56,0.10,-0.35,0.96
378,0.14,-5.45,-0.73,0.09,-0.35,0.97
379,0.32,-4.67,-0.29,0.10,-0.34,0.96
380,0.60,-3.47,0.08,0.09,-0.35,0.96
381,0.43,-2.73,0.38,0.09,-0.35,0.97
382,0.60,-3.48,0.85,0.09,-0.35,0.97
383,1.07,-4.69,0.90,0.09,-0.35,0.98
384,1.27,-5.15,0.81,0.10,-0.35,0.98
385,0.93,-4.75,1.33,0.11,-0.35,0.97
386,0.78,-4.58,1.39,0.10,-0.34,0.98
387,0.84,-4.12,1.54,0.11,-0.35,0.99
388,0.92,-4.40,1.77,0.11,-0.35,0.98
389,0.99,-3.69,1.79,0.11,-0.35,0.98
390,1.74,-4.43,2.06,0.10,-0.35,0.99
391,1.71,-3.62,2.60,0.11,-0.35,0.99
392,2.00,-3.04,3.16,0.10,-0.34,0.98
393,1.85,-3.53,3.73,0.09,-0.35,0.99
394,1.77,-2.81,4.37,0.10,-0.35,0.98
395,1.92,-3.02,4.73,0.10,-0.35,0.97
396,1.69,-3.01,4.99,0.11,-0.34,0.97
397,1.21,-1.68,5.47,0.12,-0.35,0.96
398,1.11,-1.53,5.53,0.12,-0.34,0.95
399,1.02,-2.64,5.02,0.13,-0.34,0.96
400,0.64,-4.06,4.56,0.13,-0.34,0.95
401,0.67,-5.16,4.09,0.14,-0.34,0.96
402,0.61,-6.00,3.48,0.14,-0.35,0.96
403,0.50,-6.20,3.24,0.14,-0.35,0.96
404,0.49,-5.54,3.27,0.14,-0.34,0.98
405,0.53,-5.16,2.98,0.14,-0.34,0.98
406,0.49,-3.57,2.90,0.15,-0.36,0.98
407,0.49,-2.32,3.16,0.14,-0.36,0.98
408,0.76,-2.72,3.05,0.13,-0.36,0.99
409,0.40,-3.80,3.39,0.12,-0.36,0.99
410,0.44,-2.52,3.69,0.13,-0.36,1.00
411,1.22,-2.98,4.12,0.13,-0.37,1.00
412,1.69,-2.98,3.88,0.13,-0.37,1.01
413,2.49,-1.91,4.29,0.14,-0.37,1.00
414,3.16,-1.47,4.18,0.14,-0.36,1.01
415,4.00,-1.24,4.14,0.14,-0.36,1.00
416,4.46,0.60,4.29,0.14,-0.37,1.01
417,4.85,1.92,4.84,0.14,-0.36,0.99
418,4.78,1.68,5.18,0.14,-0.37,1.00
419,5.10,0.82,4.50,0.14,-0.36,1.00
420,5.48,-0.66,4.32,0.14,-0.36,1.00
421,5.30,-0.09,4.29,0.14,-0.36,0.98
422,4.99,1.22,4.40,0.14,-0.35,0.98
423,4.85,1.11,4.82,0.13,-0.35,0.97
424,4.60,1.21,4.82,0.12,-0.36,0.97
425,4.43,1.77,5.68,0.12,-0.35,0.96
426,4.61,1.56,5.98,0.11,-0.35,0.98
427,5.40,-0.72,6.05,0.10,-0.35,0.98
428,6.00,-3.01,5.88,0.11,-0.36,0.98
429,7.27,-2.67,6.05,0.12,-0.36,0.99
430,8.20,-2.05,6.26,0.11,-0.36,0.99
431,8.06,-2.98,5.95,0.11,-0.37,1.00
432,8.49,-4.60,6.00,0.10,-0.38,0.99
433,8.53,-3.60,6.95,0.10,-0.38,1.01
434,9.01,-3.48,7.62,0.09,-0.38,1.00
435,9.71,-4.49,8.35,0.08,-0.39,1.00
436,9.66,-3.59,9.63,0.07,-0.39,1.00
437,10.40,-2.46,11.42,0.04,-0.40,1.00
438,18.75,0.49,13.76,0.02,-0.45,0.99
439,10.46,-7.54,15.44,-0.06,-0.37,1.03
440,10.08,-3.53,19.50,-0.02,-0.41,1.01
441,10.49,-2.58,23.31,-0.05,-0.43,1.02
442,11.47,-2.11,27.45,-0.07,-0.45,1.03
443,11.40,1.15,32.08,-0.09,-0.45,1.04
444,11.68,2.17,37.40,-0.14,-0.46,1.04
445,11.57,6.47,44.78,-0.17,-0.47,1.03
446,11.76,10.84,52.87,-0.22,-0.52,1.07
447,15.22,16.34,63.47,-0.28,-0.55,1.09
448,15.02,21.66,77.01,-0.30,-0.54,1.10
449,15.27,26.49,89.47,-0.33,-0.60,1.11
450,18.79,27.95,101.31,-0.34,-0.60,1.13
451,21.77,28.29,112.75,-0.35,-0.62,1.12
452,23.73,28.76,122.67,-0.34,-0.63,1.11
453,26.63,26.50,131.18,-0.31,-0.62,1.08
454,29.65,21.01,137.37,-0.32,-0.61,1.06
455,32.37,13.31,141.16,-0.30,-0.61,1.04
456,35.21,6.52,142.82,-0.30,-0.60,1.00
457,37.88,-3.30,143.15,-0.31,-0.60,0.97
458,39.65,-7.85,144.00,-0.32,-0.59,0.88
459,40.75,-18.76,145.65,-0.38,-0.59,0.84
460,41.21,-36.82,146.27,-0.41,-0.59,0.79
461,41.83,-62.98,148.05,-0.44,-0.59,0.77
462,42.02,-95.92,145.21,-0.44,-0.60,0.76
463,42.47,-99.83,146.52,-0.37,-0.60,0.71
464,43.04,-118.87,146.12,-0.40,-0.62,0.76
465,46.12,-129.37,147.56,-0.38,-0.63,0.75
466,44.21,-120.09,153.97,-0.31,-0.63,0.73
467,41.39,-117.36,160.15,-0.31,-0.63,0.75
468,39.71,-114.82,165.44,-0.24,-0.63,0.76
469,39.98,-112.93,167.63,-0.20,-0.64,0.82
470,41.73,-111.53,168.26,-0.16,-0.65,0.85
471,43.76,-104.00,169.68,-0.11,-0.66,0.86
472,46.29,-101.68,170.78,-0.13,-0.68,0.85
473,47.86,-100.31,172.76,-0.12,-0.67,0.86
474,49.18,-99.05,175.71,-0.11,-0.67,0.86
475,49.51,-96.34,177.95,-0.06,-0.66,0.85
476,50.11,-99.34,178.64,-0.07,-0.66,0.88
477,51.42,-102.20,178.32,-0.04,-0.65,0.88
478,48.84,-104.32,179.71,-0.02,-0.62,0.86
479,46.63,-105.66,179.68,0.02,-0.60,0.85
480,43.56,-106.38,180.73,0.02,-0.60,0.86
481,41.86,-110.08,182.47,0.02,-0.59,0.86
482,40.38,-102.02,185.59,0.07,-0.57,0.84
483,41.27,-98.40,186.31,0.08,-0.58,0.86
484,41.05,-97.31,186.76,0.07,-0.60,0.87
485,41.36,-95.47,188.24,0.06,-0.59,0.83
486,42.69,-100.05,188.26,0.03,-0.60,0.86
487,39.91,-89.54,191.07,0.07,-0.60,0.84
488,37.28,-91.82,192.20,0.02,-0.60,0.87
489,37.01,-107.80,193.13,-0.01,-0.61,0.86
490,35.65,-101.34,196.34,0.10,-0.60,0.79
491,27.65,-96.47,197.92,0.12,-0.58,0.83
492,22.92,-102.75,197.33,0.17,-0.57,0.82
493,23.21,-109.42,194.79,0.24,-0.57,0.82
494,21.05,-106.61,190.24,0.33,-0.53,0.83
495,18.81,-101.07,185.18,0.38,-0.51,0.86
496,19.40,-99.21,180.41,0.39,-0.51,0.86
497,22.67,-98.06,175.27,0.40,-0.51,0.87
498,23.91,-85.45,172.46,0.44,-0.50,0.85
499,30.17,-75.94,168.53,0.39,-0.57,0.86
500,23.10,-70.75,172.09,0.40,-0.53,0.85
501,21.34,-72.52,170.44,0.34,-0.55,0.94
502,29.71,-79.22,165.16,0.34,-0.63,0.93
503,23.37,-87.83,170.53,0.29,-0.55,0.95
504,21.71,-91.51,173.92,0.33,-0.60,0.95
505,18.41,-89.88,175.73,0.39,-0.58,0.94
506,15.02,-80.79,178.02,0.44,-0.57,0.91
507,13.79,-70.69,178.46,0.49,-0.58,0.90
508,12.66,-64.73,182.11,0.49,-0.56,0.92
509,12.98,-63.02,184.87,0.49,-0.55,0.92
510,15.44,-53.88,187.44,0.57,-0.54,0.91
511,17.28,-39.57,188.46,0.63,-0.51,0.89
512,18.66,-27.97,187.11,0.65,-0.49,0.87
513,20.17,-15.05,185.48,0.66,-0.49,0.82
514,18.31,-11.36,184.50,0.58,-0.48,0.84
515,16.75,-8.55,183.56,0.57,-0.48,0.81
516,20.58,-4.89,177.22,0.58,-0.49,0.79
517,13.94,0.67,175.66,0.62,-0.42,0.78
518,13.13,16.34,173.13,0.63,-0.49,0.79
519,11.10,16.37,172.52,0.55,-0.50,0.84
520,8.32,13.39,174.99,0.52,-0.52,0.86
521,10.06,11.04,178.63,0.49,-0.57,0.91
522,10.15,12.15,180.81,0.53,-0.57,0.95
523,9.68,31.74,184.66,0.60,-0.57,0.99
524,11.18,60.89,188.53,0.65,-0.54,0.98
525,12.76,78.90,189.53,0.65,-0.57,1.02
526,12.78,84.12,187.33,0.61,-0.58,1.03
527,11.07,95.86,185.39,0.59,-0.57,1.01
528,11.30,101.59,184.93,0.54,-0.54,0.98
529,12.08,91.73,176.34,0.52,-0.59,1.08
530,5.83,101.79,171.69,0.59,-0.54,0.96
531,6.18,93.15,164.14,0.57,-0.55,0.95
532,-1.80,82.79,154.61,0.57,-0.57,1.05
533,-3.86,90.44,151.92,0.63,-0.55,0.92
534,-2.85,59.86,142.40,0.56,-0.54,0.97
535,-1.83,65.36,137.80,0.74,-0.56,0.94
536,-3.15,69.30,127.28,0.78,-0.54,0.98
537,-1.53,68.21,117.65,0.80,-0.55,1.06
538,5.54,69.73,110.52,0.79,-0.52,0.97
539,7.95,51.34,100.17,0.70,-0.53,1.03
540,2.84,72.17,96.37,0.75,-0.48,0.99
541,-10.93,97.28,86.12,0.74,-0.51,1.15
542,-7.50,119.07,77.63,0.66,-0.45,1.02
543,-27.86,85.77,70.63,0.49,-0.38,1.10
544,-38.63,-28.14,42.96,0.18,-0.45,1.10
545,-31.88,-84.70,24.66,0.38,-0.43,1.05
546,-27.28,-124.49,7.63,0.44,-0.42,1.03
547,0.78,-141.80,0.38,0.49,-0.46,0.95
548,11.60,-173.76,-7.13,0.39,-0.40,0.90
549,10.53,-233.05,-17.24,0.31,-0.34,0.78
550,3.80,-253.27,-22.53,0.38,-0.30,0.79
551,-13.27,-150.64,-6.35,0.64,-0.30,0.71
552,-23.95,-27.97,6.21,0.64,-0.37,0.79
553,-26.56,6.66,13.19,0.31,-0.40,1.00
554,-14.78,-31.76,11.83,0.12,-0.37,0.79
555,-32.49,-31.50,-0.79,0.52,-0.44,0.95
556,-29.24,52.73,19.24,0.39,-0.39,0.94
