,gyro_x,gyro_y,gyro_z,acce_x,acce_y,acce_z
0,97.73,19.97,26.99,-0.07,-0.56,1.47
1,104.38,27.34,31.02,-0.01,-0.54,1.51
2,120.21,30.52,33.07,-0.03,-0.58,1.49
3,136.79,36.32,36.40,-0.00,-0.59,1.53
4,152.43,38.49,37.97,0.02,-0.57,1.51
5,168.00,42.06,39.24,-0.00,-0.61,1.55
6,180.02,52.46,42.78,0.05,-0.60,1.55
7,189.15,61.97,56.70,0.14,-0.44,1.58
8,201.62,71.79,53.40,0.00,-0.58,1.47
9,214.06,67.92,57.04,-0.22,-0.47,1.49
10,220.37,68.06,63.98,-0.09,-0.48,1.34
11,227.63,62.58,67.01,-0.06,-0.36,1.19
12,237.04,50.17,68.66,-0.07,-0.19,1.01
13,237.73,43.11,71.79,-0.08,-0.08,0.94
14,235.02,43.63,73.79,0.04,0.00,0.90
15,235.40,41.11,73.36,0.12,0.07,0.89
16,234.14,28.18,64.55,0.14,0.03,0.96
17,237.39,33.68,63.11,0.18,0.04,0.93
18,240.67,40.32,63.86,0.15,0.08,0.90
19,242.87,42.15,62.70,0.10,0.09,0.90
20,242.69,47.31,62.23,0.13,0.15,0.86
21,240.08,51.04,60.53,0.12,0.20,0.83
22,239.11,47.66,57.76,0.07,0.23,0.84
23,237.79,45.65,54.72,0.07,0.30,0.77
24,230.95,42.61,51.10,0.06,0.38,0.74
25,227.53,28.70,47.30,0.02,0.41,0.70
26,223.19,26.92,43.59,0.09,0.46,0.63
27,218.08,23.44,37.98,0.07,0.57,0.60
28,211.83,16.17,32.58,0.09,0.58,0.53
29,198.92,18.08,31.62,0.11,0.69,0.47
30,199.13,19.31,28.02,0.12,0.72,0.46
31,194.84,22.64,25.36,0.12,0.72,0.48
32,189.89,27.88,23.76,0.14,0.83,0.41
33,184.66,30.44,20.76,0.15,0.88,0.35
34,176.72,30.49,18.18,0.15,0.95,0.26
35,168.27,32.44,15.30,0.20,1.00,0.23
36,159.01,27.86,8.84,0.20,1.03,0.21
37,153.16,28.12,-0.26,0.19,1.09,0.06
38,143.54,23.57,-9.27,0.22,1.12,0.06
39,128.69,19.01,-16.75,0.20,1.18,-0.01
40,112.70,12.05,-23.76,0.12,1.21,-0.06
41,101.01,4.99,-30.63,0.08,1.20,-0.09
42,88.72,-0.90,-36.43,0.03,1.21,-0.07
43,76.47,-4.72,-41.13,0.03,1.17,-0.06
44,66.02,0.02,-44.63,0.03,1.14,-0.06
45,54.93,0.00,-48.47,-0.02,1.13,-0.06
46,43.22,2.38,-49.37,-0.07,1.10,-0.05
47,31.22,3.21,-49.01,-0.14,1.05,-0.00
48,15.54,3.07,-48.34,-0.18,0.95,0.05
49,7.82,3.10,-47.79,-0.23,0.90,0.07
50,-0.24,0.03,-46.93,-0.33,0.83,0.14
51,-7.13,-5.73,-47.21,-0.39,0.78,0.20
52,-14.60,-10.05,-46.40,-0.45,0.74,0.25
53,-24.81,-16.06,-45.11,-0.53,0.69,0.30
54,-30.44,-16.92,-41.65,-0.60,0.59,0.40
55,-35.15,-18.66,-37.11,-0.65,0.52,0.54
56,-39.65,-20.52,-32.18,-0.70,0.43,0.61
57,-41.08,-22.14,-28.66,-0.81,0.33,0.75
58,-42.43,-23.95,-15.36,-0.88,0.24,0.88
59,-39.48,-20.14,-2.29,-0.89,0.18,0.95
60,-33.07,-24.89,7.02,-0.96,0.09,1.04
61,-31.66,-23.80,17.51,-0.97,0.06,1.14
62,-20.99,-12.84,33.08,-1.01,0.00,1.19
63,-20.99,-11.97,44.00,-1.00,0.02,1.27
64,-15.51,-9.95,57.39,-1.01,0.01,1.25
65,-12.31,-4.82,71.76,-0.95,0.02,1.24
66,-7.08,1.85,84.53,-0.91,0.03,1.24
67,-2.87,3.24,95.88,-0.87,0.03,1.23
68,2.82,8.15,105.95,-0.77,0.07,1.20
69,3.86,5.95,112.32,-0.70,0.10,1.19
70,7.85,7.18,119.39,-0.64,0.12,1.11
71,9.34,12.32,126.72,-0.52,0.17,1.11
72,10.43,11.33,130.50,-0.44,0.19,1.09
73,11.76,12.38,133.18,-0.32,0.23,1.01
74,12.43,14.18,135.30,-0.24,0.26,1.00
75,12.17,15.88,136.40,-0.14,0.26,0.99
76,12.32,19.45,137.34,-0.03,0.25,0.99
77,12.73,21.71,136.98,0.02,0.25,0.99
78,13.21,23.34,135.88,0.07,0.24,1.00
79,14.17,24.58,135.25,0.12,0.23,1.01
80,15.53,26.61,137.02,0.18,0.24,1.02
81,16.47,28.23,134.06,0.25,0.24,1.02
82,18.09,30.66,132.82,0.27,0.22,1.02
83,19.77,33.56,131.28,0.34,0.24,1.01
84,21.10,37.27,130.93,0.43,0.27,0.99
85,20.40,41.13,127.63,0.47,0.26,1.01
86,20.31,42.78,123.68,0.49,0.29,0.99
87,20.27,46.47,121.37,0.47,0.29,0.98
88,21.16,49.33,121.19,0.49,0.31,0.97
89,22.43,44.18,119.63,0.43,0.34,0.94
90,22.29,46.26,119.97,0.49,0.38,0.92
91,23.60,40.52,118.66,0.46,0.37,0.91
92,25.98,36.12,118.24,0.50,0.40,0.90
93,28.43,29.02,117.98,0.56,0.43,0.86
94,28.93,27.60,118.21,0.63,0.47,0.88
95,29.86,25.73,114.63,0.70,0.49,0.87
96,32.26,22.24,109.79,0.75,0.52,0.83
97,26.75,20.84,105.76,0.85,0.67,0.81
98,28.63,19.13,97.33,0.90,0.65,0.70
99,25.25,20.08,89.44,0.99,0.68,0.83
100,26.84,21.22,78.69,1.05,0.69,0.80
101,24.82,15.82,68.60,1.08,0.73,0.76
102,28.35,21.37,59.37,1.08,0.80,0.73
103,25.51,15.02,49.71,1.05,0.82,0.70
104,27.68,11.05,38.67,1.01,0.82,0.72
105,27.71,3.39,29.02,1.02,0.87,0.68
106,27.69,-1.11,20.09,1.00,0.90,0.65
107,28.46,-10.05,10.75,0.95,0.92,0.66
108,28.32,-14.75,3.39,0.97,0.96,0.61
109,27.07,-21.33,-4.34,0.96,0.99,0.60
110,20.69,-34.70,-12.67,0.93,1.08,0.56
111,27.39,-30.76,-20.41,1.07,1.07,0.54
112,21.30,-44.03,-32.46,1.00,1.10,0.57
113,16.79,-47.74,-41.69,1.02,1.14,0.50
114,18.05,-52.82,-52.29,1.06,1.19,0.50
115,19.16,-55.24,-63.63,1.02,1.19,0.52
116,17.82,-53.97,-74.67,1.03,1.20,0.51
117,16.92,-56.84,-86.84,0.99,1.21,0.48
118,16.72,-58.41,-98.99,0.94,1.21,0.44
119,14.02,-59.13,-108.11,0.88,1.21,0.41
120,14.40,-58.17,-116.40,0.82,1.20,0.43
121,12.67,-59.31,-124.26,0.72,1.21,0.43
122,12.76,-57.73,-131.04,0.64,1.23,0.38
123,8.56,-62.32,-136.63,0.53,1.22,0.36
124,13.22,-62.87,-141.01,0.44,1.15,0.40
125,13.77,-63.48,-142.95,0.36,1.16,0.42
126,17.83,-69.88,-145.59,0.23,1.14,0.42
127,22.38,-75.08,-146.05,0.11,1.13,0.41
128,24.03,-78.03,-144.67,0.04,1.14,0.38
129,25.94,-84.02,-143.47,-0.06,1.16,0.34
130,24.55,-92.12,-141.34,-0.15,1.20,0.27
131,26.73,-93.47,-137.68,-0.19,1.20,0.24
132,24.78,-94.95,-132.87,-0.21,1.21,0.29
133,22.64,-96.55,-130.66,-0.17,1.23,0.25
134,21.30,-98.14,-130.00,-0.16,1.15,0.24
135,23.59,-85.62,-128.67,-0.16,1.13,0.21
136,21.19,-78.03,-126.61,-0.16,1.16,0.22
137,22.56,-68.69,-125.18,-0.16,1.14,0.16
138,18.66,-58.90,-121.92,-0.24,1.18,0.13
139,18.32,-51.92,-119.18,-0.32,1.15,0.10
140,16.02,-49.86,-115.92,-0.41,1.14,0.08
141,11.65,-46.76,-111.33,-0.46,1.13,0.03
142,7.69,-45.69,-107.33,-0.51,1.08,0.04
143,4.81,-45.36,-102.32,-0.53,1.06,0.06
144,1.77,-42.50,-97.40,-0.53,1.04,0.08
145,-2.55,-42.24,-95.76,-0.52,1.02,0.09
146,-5.13,-38.05,-89.25,-0.51,0.98,0.12
147,-7.74,-32.08,-84.92,-0.48,0.93,0.17
148,-10.72,-29.08,-84.43,-0.47,0.91,0.18
149,-12.27,-19.73,-77.04,-0.46,0.89,0.19
150,-16.82,-11.11,-73.40,-0.44,0.89,0.19
151,-21.24,-5.74,-71.89,-0.40,0.91,0.17
152,-25.89,-6.67,-73.65,-0.50,0.88,0.23
153,-30.37,-3.69,-70.53,-0.56,0.87,0.23
154,-35.05,-6.84,-71.65,-0.64,0.82,0.30
155,-39.94,-1.79,-64.38,-0.57,0.79,0.34
156,-43.50,-2.56,-64.56,-0.57,0.74,0.39
157,-45.50,5.63,-54.69,-0.54,0.71,0.44
158,-48.27,11.79,-56.09,-0.50,0.65,0.50
159,-52.37,15.40,-50.34,-0.51,0.62,0.55
160,-51.48,17.57,-51.28,-0.63,0.55,0.59
161,-53.82,19.66,-46.58,-0.62,0.60,0.56
162,-56.64,18.89,-43.56,-0.64,0.62,0.61
163,-59.79,16.02,-46.52,-0.72,0.56,0.63
164,-64.12,24.41,-35.18,-0.62,0.59,0.60
165,-69.65,25.45,-38.31,-0.60,0.58,0.61
166,-72.49,33.62,-26.49,-0.63,0.52,0.67
167,-74.27,39.68,-21.66,-0.66,0.43,0.73
168,-74.87,42.73,-17.80,-0.70,0.37,0.76
169,-76.41,46.84,-9.30,-0.70,0.40,0.75
170,-76.40,39.77,-6.34,-0.86,0.32,0.83
171,-76.89,35.62,1.44,-0.90,0.28,0.84
172,-76.81,30.93,7.68,-0.91,0.26,0.86
173,-78.32,27.91,15.07,-0.88,0.24,0.88
174,-80.43,28.06,21.50,-0.85,0.21,0.91
175,-81.59,28.72,32.67,-0.82,0.22,0.90
176,-82.38,26.55,41.94,-0.89,0.15,0.95
177,-84.84,24.52,51.44,-0.92,0.10,0.99
178,-82.40,17.16,61.31,-0.95,0.05,1.07
179,-79.97,11.31,71.71,-0.92,0.05,1.07
180,-78.81,4.55,84.15,-0.90,0.01,1.12
181,-74.34,0.76,95.89,-0.79,-0.04,1.18
182,-69.85,-2.40,104.82,-0.70,-0.06,1.23
183,-64.46,-7.62,112.43,-0.64,-0.09,1.24
184,-59.97,-5.37,121.94,-0.54,-0.11,1.32
185,-52.32,-14.31,127.60,-0.49,-0.15,1.39
186,-44.67,-18.92,132.31,-0.35,-0.15,1.43
187,-37.88,-19.50,136.02,-0.22,-0.14,1.42
188,-32.98,-16.23,139.39,-0.12,-0.12,1.41
189,-27.76,-11.31,142.60,-0.04,-0.12,1.41
190,-21.21,-7.25,145.40,0.02,-0.11,1.41
191,-16.61,-3.63,146.29,0.08,-0.10,1.38
192,-12.37,-0.15,147.56,0.13,-0.08,1.37
193,-8.43,4.18,147.57,0.21,-0.08,1.38
194,-5.83,7.54,147.07,0.25,-0.06,1.36
195,-0.27,15.04,147.80,0.32,-0.06,1.32
196,1.13,16.18,145.33,0.32,0.01,1.19
197,10.49,23.08,144.92,0.40,-0.04,1.31
198,12.05,11.91,141.31,0.32,0.02,1.23
199,16.27,17.73,139.91,0.49,0.02,1.25
200,16.85,27.65,140.73,0.55,0.07,1.17
201,16.99,32.32,139.88,0.52,0.08,1.17
202,22.66,30.18,135.76,0.53,0.08,1.16
203,25.11,30.34,132.85,0.60,0.17,1.08
204,24.52,29.65,128.09,0.61,0.20,1.05
205,21.39,36.81,126.63,0.73,0.28,0.97
206,20.63,40.58,123.92,0.68,0.28,0.98
207,18.64,41.13,116.37,0.68,0.27,0.98
208,17.69,39.59,110.76,0.69,0.29,0.99
209,18.53,42.50,108.27,0.79,0.30,0.98
210,21.76,32.85,102.12,0.67,0.30,1.03
211,25.86,28.96,93.22,0.76,0.32,0.98
212,27.36,30.61,87.85,0.80,0.36,0.97
213,27.31,34.00,81.16,0.86,0.41,0.93
214,29.04,31.92,74.21,0.81,0.43,0.95
215,30.61,30.66,66.06,0.80,0.46,0.90
216,29.83,30.31,58.47,0.78,0.54,0.86
217,29.22,27.25,51.60,0.72,0.59,0.78
218,26.11,27.05,46.61,0.69,0.62,0.77
219,23.24,26.18,43.08,0.64,0.63,0.74
220,22.76,23.74,40.50,0.59,0.65,0.74
221,23.88,21.76,37.18,0.58,0.68,0.74
222,23.02,15.59,32.11,0.57,0.69,0.77
223,21.40,11.21,27.40,0.58,0.70,0.75
224,21.50,8.76,25.01,0.57,0.70,0.75
225,22.52,10.14,21.51,0.61,0.70,0.77
226,23.51,2.84,18.69,0.56,0.76,0.73
227,23.85,1.40,14.05,0.65,0.78,0.75
228,26.60,-3.95,7.02,0.65,0.82,0.74
229,21.07,-1.98,3.25,0.68,0.87,0.72
230,26.66,-6.32,-3.54,0.74,0.93,0.64
231,28.82,-10.52,-10.69,0.70,0.96,0.62
232,27.36,-16.58,-18.98,0.67,1.02,0.57
233,24.93,-23.65,-27.05,0.70,1.07,0.56
234,19.85,-21.59,-33.60,0.75,1.09,0.57
235,19.85,-24.14,-42.87,0.75,1.07,0.57
236,16.75,-24.60,-50.60,0.74,1.11,0.57
237,18.87,-29.28,-60.50,0.72,1.11,0.58
238,21.95,-27.51,-67.16,0.70,1.12,0.57
239,25.30,-27.65,-74.60,0.68,1.10,0.62
240,28.44,-32.26,-82.79,0.64,1.09,0.62
241,27.65,-35.77,-89.31,0.61,1.13,0.61
242,29.31,-36.53,-95.16,0.55,1.14,0.55
243,26.58,-44.84,-99.39,0.45,1.22,0.51
244,29.05,-44.79,-104.55,0.40,1.22,0.42
245,26.12,-49.07,-107.97,0.35,1.22,0.49
246,23.22,-51.57,-110.32,0.33,1.24,0.44
247,23.15,-58.76,-112.76,0.27,1.23,0.40
248,20.50,-57.44,-113.95,0.25,1.21,0.43
249,19.85,-58.06,-114.87,0.21,1.20,0.42
250,22.21,-68.70,-118.02,0.15,1.18,0.42
251,22.05,-67.37,-118.58,0.16,1.21,0.39
252,20.43,-67.53,-118.50,0.11,1.21,0.35
253,17.13,-75.10,-119.66,0.07,1.23,0.32
254,19.37,-77.88,-119.44,0.07,1.21,0.29
255,16.02,-78.60,-118.95,0.07,1.22,0.32
256,13.45,-76.89,-117.97,0.10,1.19,0.33
257,16.78,-80.06,-119.16,0.10,1.14,0.37
258,15.01,-81.56,-120.96,0.11,1.15,0.36
259,16.73,-67.45,-122.11,0.18,1.14,0.35
260,12.75,-63.22,-124.03,0.10,1.14,0.35
261,11.97,-58.40,-125.95,0.06,1.14,0.31
262,6.70,-54.38,-126.21,-0.02,1.15,0.29
263,7.19,-52.82,-126.41,-0.10,1.12,0.28
264,6.02,-51.77,-125.40,-0.19,1.09,0.32
265,5.56,-54.08,-123.82,-0.25,1.05,0.32
266,5.15,-56.06,-122.02,-0.27,1.00,0.36
267,6.15,-55.10,-119.59,-0.29,0.94,0.37
268,6.58,-52.02,-115.19,-0.29,0.92,0.38
269,5.85,-46.11,-113.18,-0.29,0.92,0.37
270,1.36,-44.85,-111.04,-0.35,0.94,0.34
271,-0.44,-37.28,-108.00,-0.40,0.94,0.32
272,-3.91,-37.47,-105.36,-0.46,0.93,0.35
273,-7.71,-36.69,-102.44,-0.49,0.90,0.36
274,-12.17,-32.24,-96.87,-0.51,0.87,0.34
275,-17.54,-24.03,-89.94,-0.45,0.88,0.33
276,-22.96,-18.56,-88.79,-0.47,0.85,0.39
277,-28.52,-8.18,-85.47,-0.42,0.84,0.41
278,-32.79,2.67,-85.13,-0.48,0.77,0.47
279,-37.30,8.63,-83.34,-0.56,0.75,0.49
280,-41.24,12.75,-81.71,-0.71,0.68,0.57
281,-45.80,16.03,-77.74,-0.71,0.67,0.56
282,-48.70,15.07,-73.86,-0.78,0.64,0.59
283,-50.31,16.75,-69.18,-0.78,0.59,0.62
284,-51.21,17.83,-63.69,-0.79,0.54,0.68
285,-50.90,22.38,-58.06,-0.79,0.51,0.71
286,-51.74,24.66,-52.49,-0.82,0.51,0.72
287,-53.37,25.62,-45.54,-0.86,0.48,0.73
288,-54.72,29.57,-37.54,-0.85,0.43,0.78
289,-56.79,33.62,-30.93,-0.83,0.41,0.79
290,-59.53,37.86,-25.60,-0.81,0.41,0.81
291,-62.40,42.44,-21.10,-0.82,0.38,0.84
292,-63.60,44.49,-17.34,-0.85,0.33,0.88
293,-63.21,43.91,-14.31,-0.88,0.28,0.94
294,-58.47,48.43,-8.26,-0.90,0.22,0.96
295,-59.71,47.66,-1.11,-0.91,0.18,1.03
296,-58.66,42.00,5.71,-0.98,0.17,1.02
297,-58.46,43.86,16.99,-0.92,0.18,0.99
298,-58.64,43.63,26.08,-1.02,0.14,1.01
299,-59.11,44.03,36.63,-1.02,0.13,1.02
300,-57.89,40.76,45.01,-1.00,0.10,1.06
301,-55.05,39.60,53.69,-0.96,0.06,1.12
302,-50.99,35.91,62.47,-0.95,-0.02,1.20
303,-47.73,29.98,71.68,-0.95,-0.03,1.23
304,-43.25,26.63,80.63,-0.91,-0.05,1.23
305,-38.78,21.97,90.46,-0.89,-0.06,1.26
306,-35.19,20.18,101.05,-0.83,-0.05,1.27
307,-31.22,17.28,110.26,-0.77,-0.05,1.27
308,-26.72,13.92,118.15,-0.70,-0.08,1.31
309,-21.47,10.92,124.78,-0.60,-0.11,1.33
310,-16.11,9.74,131.22,-0.51,-0.13,1.34
311,-10.72,11.10,136.23,-0.42,-0.13,1.34
312,-6.27,11.11,140.31,-0.33,-0.12,1.32
313,-3.16,12.72,144.84,-0.28,-0.09,1.27
314,-1.31,14.15,148.60,-0.20,-0.07,1.25
315,0.85,13.94,151.57,-0.14,-0.05,1.24
316,3.68,14.50,154.11,-0.06,-0.06,1.23
317,6.26,16.82,155.56,0.05,-0.06,1.25
318,9.54,21.83,156.52,0.15,-0.02,1.14
319,10.81,26.46,155.57,0.22,-0.02,1.19
320,13.15,37.11,154.92,0.27,0.01,1.14
321,15.08,29.92,150.96,0.19,0.00,1.11
322,17.04,31.15,151.89,0.25,-0.00,1.14
323,18.82,32.75,152.20,0.26,0.02,1.12
324,18.99,30.21,151.37,0.24,0.07,1.04
325,17.91,27.88,153.16,0.24,0.10,1.01
326,17.77,25.16,154.69,0.28,0.10,1.00
327,17.82,24.99,154.85,0.38,0.11,0.98
328,18.61,25.68,153.39,0.46,0.12,0.98
329,18.15,25.77,150.09,0.57,0.13,0.97
330,16.50,27.68,142.92,0.68,0.17,0.94
331,14.47,40.34,146.92,0.73,0.20,0.91
332,18.64,39.89,134.40,0.76,0.20,0.94
333,12.73,33.73,124.06,0.74,0.21,0.96
334,14.23,34.52,115.39,0.76,0.27,0.81
335,11.89,27.07,107.95,0.73,0.26,0.80
336,11.94,31.57,104.58,0.73,0.26,0.78
337,8.15,30.84,101.66,0.64,0.31,0.77
338,7.66,31.48,97.89,0.62,0.35,0.75
339,4.93,27.76,93.80,0.58,0.41,0.71
340,2.66,20.26,90.67,0.52,0.46,0.68
341,-0.11,19.66,88.75,0.56,0.52,0.64
342,-3.02,13.50,87.01,0.54,0.55,0.63
343,-6.93,11.68,82.46,0.64,0.57,0.68
344,-10.63,6.17,75.91,0.66,0.58,0.70
345,-11.24,0.53,69.54,0.70,0.60,0.71
346,-11.39,-2.32,62.67,0.81,0.64,0.66
347,-10.89,-4.53,56.67,0.75,0.64,0.71
348,-12.92,-8.35,51.82,0.80,0.72,0.67
349,-22.78,-4.93,47.37,0.87,0.74,0.74
350,-21.48,-0.99,39.19,0.85,0.81,0.65
351,-26.63,-0.38,30.58,0.80,0.88,0.58
352,-32.84,-6.63,21.24,0.74,0.92,0.57
353,-39.01,-8.49,13.22,0.73,0.97,0.58
354,-43.59,-18.21,5.80,0.70,0.96,0.59
355,-43.89,-20.63,-0.79,0.66,0.92,0.63
356,-48.53,-27.45,-6.96,0.66,0.97,0.68
357,-48.55,-34.06,-12.49,0.66,0.94,0.72
358,-46.23,-37.79,-18.76,0.69,0.96,0.76
359,-43.60,-34.35,-25.13,0.76,0.94,0.82
360,-42.87,-34.43,-31.73,0.76,0.94,0.89
361,-35.74,-36.70,-38.66,0.77,0.92,0.92
362,-30.46,-34.41,-43.76,0.80,0.92,0.95
363,-24.47,-32.81,-50.95,0.81,0.94,0.94
364,-22.53,-32.15,-58.37,0.77,1.04,0.87
365,-18.32,-34.70,-66.60,0.72,1.09,0.83
366,-17.94,-36.40,-73.66,0.67,1.13,0.82
367,-19.15,-39.28,-80.32,0.64,1.17,0.79
368,-25.13,-37.95,-85.89,0.61,1.15,0.81
369,-15.86,-44.06,-92.03,0.56,1.11,0.80
370,-12.24,-43.44,-97.54,0.54,1.10,0.85
371,-9.80,-44.90,-103.10,0.53,1.10,0.86
372,-4.72,-44.24,-106.75,0.49,1.09,0.88
373,0.37,-43.02,-108.60,0.42,1.09,0.85
374,5.01,-40.56,-110.49,0.39,1.10,0.84
375,9.83,-40.98,-112.98,0.34,1.10,0.82
376,13.83,-42.21,-115.30,0.29,1.11,0.78
377,17.65,-45.63,-117.08,0.23,1.11,0.79
378,21.11,-48.75,-119.05,0.20,1.12,0.77
379,23.92,-51.37,-121.27,0.17,1.13,0.75
380,26.47,-53.31,-122.92,0.15,1.13,0.72
381,28.81,-54.12,-124.27,0.15,1.10,0.72
382,31.11,-53.11,-125.83,0.13,1.09,0.73
383,33.62,-51.48,-126.55,0.12,1.06,0.71
384,35.95,-46.63,-126.69,0.12,1.05,0.71
385,38.15,-40.73,-127.36,0.12,1.03,0.70
386,40.95,-36.43,-128.67,0.09,1.01,0.68
387,43.22,-31.39,-129.48,0.05,0.99,0.67
388,44.93,-25.40,-130.03,-0.01,0.98,0.64
389,45.83,-18.96,-129.89,-0.10,0.96,0.59
390,45.77,-15.62,-129.73,-0.22,0.94,0.58
391,47.34,-23.30,-127.45,-0.38,0.93,0.55
392,48.06,-25.10,-122.11,-0.43,0.92,0.53
393,46.18,-27.42,-116.76,-0.44,0.90,0.55
394,56.73,-21.08,-112.50,-0.43,0.86,0.57
395,47.22,-16.72,-107.51,-0.41,0.92,0.59
396,48.34,-12.38,-105.97,-0.39,0.83,0.57
397,44.69,-6.67,-104.06,-0.43,0.87,0.54
398,39.48,0.93,-102.49,-0.44,0.86,0.51
399,34.60,6.89,-99.77,-0.50,0.84,0.54
400,30.90,13.97,-96.03,-0.50,0.78,0.52
