,gyro_x,gyro_y,gyro_z,acce_x,acce_y,acce_z
0,194.26,101.51,-26.35,0.18,0.06,1.16
1,202.82,108.67,-26.41,0.19,0.14,1.07
2,212.05,114.63,-30.67,0.09,0.16,1.00
3,219.40,114.02,-34.70,-0.02,0.22,0.93
4,229.91,113.97,-35.63,-0.08,0.29,0.83
5,248.43,113.21,-41.37,-0.15,0.33,0.79
6,226.20,97.31,-51.19,-0.17,0.57,0.85
7,258.24,92.92,-32.84,-0.16,0.64,0.44
8,251.05,91.42,-30.35,-0.39,0.81,0.24
9,222.32,94.15,-34.78,-0.32,0.76,0.30
10,226.50,89.57,-34.75,-0.31,0.59,0.39
11,232.40,94.00,-33.39,-0.27,0.57,0.34
12,241.37,104.05,-21.33,-0.31,0.63,0.16
13,244.90,94.90,-16.70,-0.59,0.68,0.14
14,244.15,63.53,-24.61,-0.66,0.74,0.08
15,215.83,39.83,-31.27,-0.67,0.90,0.06
16,199.71,22.18,-25.13,-0.63,0.92,-0.05
17,178.20,13.47,-22.63,-0.63,0.96,-0.08
18,163.88,7.48,-17.60,-0.59,0.91,-0.07
19,146.09,2.72,-11.24,-0.61,0.92,-0.07
20,128.12,-3.13,-6.92,-0.62,0.91,-0.10
21,107.82,-6.64,-0.70,-0.62,0.90,-0.10
22,85.74,-11.88,4.18,-0.61,0.86,-0.07
23,66.34,-16.96,5.30,-0.59,0.79,0.00
24,45.94,-17.33,6.09,-0.54,0.65,0.10
25,27.98,-8.03,12.35,-0.44,0.57,0.19
26,13.57,1.77,19.79,-0.45,0.49,0.34
27,1.01,7.01,23.45,-0.52,0.33,0.49
28,-4.53,11.21,29.21,-0.57,0.25,0.64
29,-9.39,11.51,35.60,-0.65,0.21,0.76
30,-15.76,8.64,42.56,-0.70,0.10,0.90
31,-17.83,11.80,53.66,-0.69,0.07,1.08
32,-15.07,6.06,60.70,-0.73,-0.03,1.18
33,-12.24,2.98,70.56,-0.74,-0.07,1.32
34,-6.66,1.68,82.55,-0.73,-0.13,1.43
35,0.32,-3.57,93.60,-0.74,-0.18,1.53
36,12.56,-13.18,102.63,-0.72,-0.23,1.59
37,27.25,-21.47,110.72,-0.64,-0.23,1.54
38,36.50,-22.41,119.08,-0.49,-0.18,1.50
39,45.59,-21.69,125.60,-0.33,-0.10,1.38
40,47.28,-15.83,129.05,-0.21,-0.01,1.27
41,46.32,-5.50,132.34,-0.04,0.10,1.15
42,42.14,5.27,131.44,0.02,0.18,0.91
43,48.92,28.49,140.78,0.27,0.07,0.98
44,35.22,30.53,123.10,0.12,0.32,0.98
45,28.81,41.31,124.23,0.23,0.30,0.94
46,26.08,53.51,127.94,0.23,0.30,0.98
47,21.88,56.46,121.07,0.17,0.29,1.00
48,24.09,61.71,123.22,0.23,0.27,1.03
49,21.08,62.32,120.73,0.22,0.28,1.08
50,24.75,64.08,119.89,0.26,0.23,1.09
51,29.04,57.54,115.24,0.25,0.23,1.12
52,33.56,53.10,112.34,0.28,0.26,1.13
53,42.17,48.67,109.59,0.31,0.26,1.14
54,47.83,41.88,105.65,0.32,0.28,1.16
55,55.13,32.69,100.78,0.33,0.34,1.11
56,61.34,25.25,97.10,0.36,0.43,1.08
57,65.83,15.76,92.53,0.38,0.48,1.02
58,69.16,7.66,86.32,0.43,0.55,0.99
59,72.63,5.25,83.63,0.53,0.60,0.94
60,75.53,4.98,79.08,0.59,0.63,0.91
61,76.61,4.73,74.23,0.64,0.67,0.89
62,78.82,4.41,68.35,0.67,0.70,0.87
63,80.72,7.21,63.19,0.74,0.73,0.85
64,84.69,10.08,57.91,0.78,0.77,0.83
65,88.52,12.69,48.60,0.81,0.78,0.83
66,94.84,15.13,41.21,0.82,0.82,0.81
67,108.06,19.88,46.40,0.86,0.88,0.71
68,102.21,11.37,31.85,0.76,0.95,0.72
69,108.60,6.24,17.66,0.76,0.97,0.66
70,110.58,-2.24,7.56,0.72,1.01,0.59
71,115.40,4.41,7.33,0.85,1.16,0.56
72,127.48,-3.33,-5.88,0.76,1.05,0.40
73,122.98,-10.96,-18.72,0.66,1.15,0.39
74,121.62,-15.37,-26.98,0.66,1.16,0.26
75,119.02,-15.33,-33.27,0.65,1.23,0.25
76,118.05,-21.83,-44.95,0.60,1.25,0.17
77,117.44,-19.45,-50.29,0.61,1.29,0.09
78,115.95,-13.76,-54.32,0.60,1.33,0.02
79,117.47,-19.28,-65.30,0.48,1.34,-0.02
80,107.21,-21.69,-70.64,0.40,1.42,-0.03
81,109.18,-25.79,-77.85,0.36,1.36,-0.10
82,102.95,-31.63,-85.57,0.26,1.40,-0.13
83,99.33,-35.37,-89.27,0.23,1.39,-0.14
84,101.33,-40.87,-92.82,0.17,1.36,-0.11
85,103.08,-42.34,-93.69,0.18,1.31,-0.15
86,101.10,-42.82,-96.85,0.17,1.31,-0.10
87,99.69,-46.08,-99.97,0.10,1.36,-0.13
88,100.84,-50.98,-104.85,0.07,1.30,-0.16
89,104.70,-55.28,-104.40,0.03,1.30,-0.21
90,103.88,-65.24,-109.98,-0.03,1.31,-0.23
91,101.73,-65.85,-111.82,0.00,1.35,-0.33
92,94.98,-67.15,-114.49,-0.05,1.34,-0.34
93,89.82,-69.53,-116.27,-0.08,1.32,-0.39
94,84.58,-68.64,-117.07,-0.09,1.28,-0.39
95,79.36,-69.11,-119.85,-0.11,1.24,-0.42
96,73.47,-67.50,-121.42,-0.12,1.21,-0.43
97,71.02,-67.82,-123.54,-0.17,1.14,-0.43
98,66.56,-67.10,-124.35,-0.20,1.09,-0.43
99,63.48,-69.57,-125.76,-0.26,1.05,-0.43
100,60.38,-79.47,-132.37,-0.38,0.99,-0.41
101,56.21,-81.13,-131.21,-0.38,0.99,-0.45
102,50.00,-84.02,-131.50,-0.43,0.97,-0.46
103,43.53,-87.21,-131.30,-0.46,0.97,-0.48
104,36.24,-84.93,-130.96,-0.47,0.95,-0.52
105,27.74,-82.20,-128.61,-0.50,0.90,-0.53
106,16.89,-79.19,-127.10,-0.50,0.87,-0.50
107,8.08,-74.87,-125.24,-0.51,0.83,-0.49
108,1.71,-70.44,-123.28,-0.54,0.78,-0.48
109,-6.50,-67.54,-125.50,-0.57,0.74,-0.43
110,-16.09,-61.57,-124.92,-0.58,0.69,-0.41
111,-29.07,-49.24,-123.24,-0.54,0.68,-0.35
112,-39.53,-39.34,-120.37,-0.57,0.64,-0.31
113,-48.47,-33.98,-119.68,-0.69,0.57,-0.29
114,-62.63,-29.69,-113.21,-0.80,0.58,-0.19
115,-71.79,-28.37,-104.26,-0.92,0.53,-0.12
116,-75.10,-27.71,-77.91,-0.77,0.44,-0.00
117,-79.45,-38.87,-76.64,-1.05,0.37,0.02
118,-86.02,-47.11,-70.00,-1.18,0.34,0.18
119,-90.73,-52.38,-57.42,-1.16,0.31,0.28
120,-92.34,-55.51,-45.60,-1.10,0.28,0.32
121,-95.33,-53.42,-32.79,-0.97,0.28,0.36
122,-103.24,-49.15,-25.62,-0.93,0.28,0.42
123,-109.63,-41.28,-17.04,-0.90,0.25,0.50
124,-120.06,-37.91,-15.47,-0.89,0.24,0.57
125,-128.11,-36.32,-12.31,-0.84,0.22,0.62
126,-139.47,-23.56,-10.14,-0.79,0.21,0.65
127,-139.11,-8.53,8.34,-0.90,0.11,0.78
128,-137.27,-8.00,18.06,-1.06,0.06,0.93
129,-135.79,-11.86,31.51,-1.17,0.03,1.03
130,-133.08,-19.92,44.61,-1.19,0.03,1.12
131,-125.66,-19.80,68.08,-1.17,0.02,1.16
132,-123.51,-29.56,80.98,-1.18,0.03,1.20
133,-121.36,-39.71,97.57,-1.10,0.03,1.30
134,-114.85,-40.44,111.40,-0.92,-0.02,1.36
135,-107.92,-35.39,121.54,-0.74,-0.08,1.44
136,-98.78,-20.85,133.54,-0.60,-0.11,1.50
137,-92.14,-9.16,143.53,-0.58,-0.13,1.62
138,-85.59,-4.02,149.63,-0.59,-0.17,1.71
139,-78.05,3.76,159.74,-0.57,-0.18,1.78
140,-74.63,10.29,167.47,-0.57,-0.20,1.84
141,-59.31,20.60,186.18,-0.45,-0.16,1.89
142,-45.94,21.18,193.11,-0.49,-0.22,1.90
143,-32.87,21.62,201.11,-0.40,-0.19,1.86
144,-25.33,20.92,205.47,-0.28,-0.15,1.77
145,-17.53,19.98,207.28,-0.18,-0.11,1.66
146,-12.29,38.78,215.01,0.04,0.00,1.57
147,-10.37,48.99,215.54,0.10,-0.01,1.44
148,-9.66,59.21,216.78,0.16,0.06,1.37
149,-12.02,67.48,218.03,0.20,0.10,1.29
150,-14.55,73.92,218.69,0.27,0.12,1.27
151,-14.06,77.07,217.47,0.33,0.13,1.24
152,-15.07,77.18,214.81,0.36,0.14,1.23
153,-14.37,75.47,212.58,0.41,0.17,1.23
154,-11.08,71.44,211.11,0.48,0.21,1.20
155,-7.95,65.11,203.91,0.53,0.22,1.22
156,-4.00,59.28,198.66,0.59,0.26,1.23
157,-7.24,55.30,198.63,0.68,0.39,1.23
158,5.86,49.83,186.89,0.67,0.29,1.20
159,14.38,40.58,178.14,0.69,0.38,1.20
160,20.44,34.23,177.53,0.74,0.46,1.21
161,29.92,21.44,171.31,0.77,0.51,1.16
162,37.63,10.85,165.01,0.81,0.62,1.11
163,41.19,4.92,159.36,0.89,0.66,1.05
164,51.98,-4.58,150.08,0.93,0.68,0.99
165,58.69,-12.46,140.00,1.00,0.78,0.95
166,65.56,-10.20,134.95,1.09,0.85,0.87
167,66.44,-13.51,122.95,1.08,0.92,0.83
168,61.86,-12.29,113.94,1.12,1.00,0.77
169,51.77,-19.73,112.03,1.11,1.05,0.72
170,69.85,-19.05,98.21,1.12,1.03,0.65
171,77.66,-32.47,81.73,1.05,1.05,0.62
172,79.92,-34.40,70.15,1.11,1.15,0.56
173,76.08,-37.36,39.22,1.10,1.22,0.48
174,85.01,-30.99,45.89,1.17,1.11,0.49
175,85.85,-37.57,32.53,1.06,1.20,0.51
176,84.08,-33.89,17.53,1.20,1.26,0.39
177,89.18,-29.08,12.06,1.10,1.24,0.37
178,90.05,-37.13,-1.92,0.96,1.25,0.36
179,93.62,-40.75,-15.11,0.98,1.28,0.28
180,95.69,-50.40,-29.68,0.89,1.30,0.22
181,94.18,-60.79,-45.50,0.83,1.31,0.16
182,94.52,-56.89,-51.92,0.86,1.34,0.09
183,93.85,-59.22,-65.92,0.76,1.34,0.07
184,91.16,-61.86,-76.32,0.71,1.37,-0.00
185,87.11,-65.82,-84.26,0.65,1.42,-0.04
186,86.23,-71.50,-92.87,0.57,1.37,-0.05
187,84.84,-70.14,-98.81,0.53,1.37,-0.11
188,82.53,-69.73,-104.61,0.47,1.35,-0.11
189,82.18,-72.52,-111.56,0.40,1.31,-0.10
190,81.11,-74.84,-116.12,0.34,1.28,-0.09
191,83.34,-77.74,-119.97,0.28,1.25,-0.11
192,84.58,-82.84,-124.12,0.20,1.23,-0.13
193,86.46,-83.66,-124.12,0.16,1.23,-0.15
194,88.41,-85.07,-123.85,0.09,1.21,-0.18
195,90.72,-86.11,-122.40,0.04,1.20,-0.20
196,92.02,-87.47,-120.70,0.02,1.19,-0.22
197,93.86,-90.18,-120.78,-0.01,1.16,-0.26
198,94.70,-93.27,-123.01,-0.01,1.15,-0.31
199,95.54,-98.27,-125.25,-0.02,1.14,-0.36
200,92.06,-93.76,-128.52,0.02,1.15,-0.41
201,89.22,-90.92,-132.27,0.02,1.11,-0.48
202,83.60,-86.75,-137.04,0.01,1.10,-0.52
203,78.69,-79.08,-140.67,0.03,1.08,-0.57
204,74.23,-75.97,-145.07,-0.04,1.05,-0.55
205,71.28,-73.73,-152.15,-0.09,1.02,-0.59
206,67.65,-68.75,-156.02,-0.14,0.99,-0.61
207,62.32,-63.98,-157.51,-0.21,0.97,-0.63
208,57.69,-60.84,-158.70,-0.26,0.95,-0.63
209,53.50,-57.01,-156.95,-0.31,0.93,-0.63
210,49.28,-56.24,-155.97,-0.36,0.90,-0.65
211,45.18,-56.81,-154.40,-0.40,0.91,-0.64
212,39.92,-58.85,-155.22,-0.42,0.90,-0.63
213,34.02,-60.40,-155.05,-0.43,0.89,-0.64
214,21.48,-59.13,-156.75,-0.41,0.89,-0.68
215,12.02,-51.08,-154.08,-0.37,0.90,-0.71
216,3.59,-50.40,-146.43,-0.40,0.85,-0.67
217,-15.42,-41.59,-157.34,-0.38,0.91,-0.72
218,-27.59,-29.53,-149.97,-0.36,0.83,-0.70
219,-41.59,-27.21,-153.80,-0.49,0.80,-0.64
220,-56.00,-24.44,-155.53,-0.49,0.75,-0.59
221,-69.92,-21.69,-154.81,-0.54,0.72,-0.54
222,-83.19,-20.32,-153.88,-0.59,0.64,-0.46
223,-97.42,-18.43,-153.91,-0.66,0.57,-0.37
224,-107.56,-19.85,-151.37,-0.76,0.49,-0.28
225,-113.71,-22.78,-150.61,-0.83,0.39,-0.15
226,-118.61,-23.28,-143.50,-0.90,0.33,-0.06
227,-122.87,-24.21,-132.96,-0.94,0.31,-0.05
228,-129.31,-30.76,-128.44,-1.04,0.30,0.00
229,-141.16,-34.61,-118.63,-1.05,0.31,0.05
230,-156.53,-30.34,-107.51,-1.04,0.22,0.15
231,-165.25,-26.73,-94.23,-0.99,0.17,0.25
232,-178.93,-25.59,-87.16,-1.03,0.05,0.34
233,-184.37,-21.44,-76.58,-1.05,-0.04,0.48
234,-187.89,-22.53,-66.15,-1.10,-0.07,0.67
235,-185.13,-29.54,-58.23,-1.40,-0.19,0.79
236,-191.44,-6.72,-33.65,-1.17,-0.11,0.83
237,-181.98,-1.10,-17.40,-1.32,-0.26,1.05
238,-180.32,-27.83,-20.02,-1.65,-0.45,1.16
239,-178.20,-10.61,24.37,-1.34,-0.27,1.11
240,-170.98,-10.60,50.70,-1.41,-0.29,1.27
241,-165.05,-16.55,64.40,-1.35,-0.30,1.33
242,-158.95,-12.82,87.94,-1.28,-0.28,1.37
243,-153.79,-5.39,104.60,-1.17,-0.27,1.42
244,-146.24,-0.92,125.91,-1.10,-0.27,1.46
245,-139.31,0.82,142.21,-1.01,-0.28,1.50
246,-133.83,-4.05,150.29,-0.94,-0.27,1.51
247,-125.83,-3.42,165.77,-0.86,-0.30,1.59
248,-113.25,-5.27,177.44,-0.74,-0.31,1.65
249,-101.80,0.58,194.17,-0.64,-0.30,1.69
250,-90.17,-12.21,200.85,-0.65,-0.35,1.81
251,-74.09,-21.01,207.73,-0.53,-0.36,1.84
252,-57.04,-21.31,216.84,-0.35,-0.34,1.83
253,-43.69,-17.89,220.06,-0.19,-0.27,1.77
254,-34.23,-10.27,222.50,-0.04,-0.20,1.65
255,-27.60,-0.12,223.13,0.06,-0.09,1.54
256,-26.23,7.73,223.79,0.11,0.02,1.49
257,-26.02,14.64,226.15,0.21,0.10,1.45
258,-25.28,19.11,223.11,0.27,0.11,1.42
259,-27.25,22.40,219.68,0.38,0.10,1.44
260,-27.31,28.79,215.69,0.48,0.12,1.44
261,-24.89,39.53,212.09,0.62,0.07,1.40
262,-26.02,50.49,206.99,0.70,0.10,1.41
263,-24.90,63.33,200.18,0.75,0.12,1.39
264,-19.02,74.02,194.18,0.75,0.11,1.33
265,-20.66,81.76,188.52,0.71,0.20,1.31
266,-11.95,81.34,181.27,0.66,0.19,1.25
267,-14.46,86.60,179.04,0.65,0.36,1.30
268,-9.07,82.82,179.97,0.63,0.28,1.17
269,-8.02,74.12,174.90,0.51,0.35,1.19
270,-2.87,58.08,168.06,0.51,0.34,1.17
271,-0.52,50.58,165.27,0.57,0.40,1.16
272,3.62,40.44,163.57,0.59,0.42,1.17
273,13.51,30.08,161.88,0.64,0.42,1.18
274,23.30,16.69,153.37,0.68,0.44,1.19
275,32.20,9.13,146.56,0.83,0.52,1.21
276,47.86,5.10,141.47,0.87,0.56,1.07
277,56.24,0.87,129.85,0.84,0.63,1.03
278,60.67,-1.86,122.55,0.85,0.74,0.91
279,61.77,-1.47,122.90,0.89,0.81,0.84
280,66.18,-14.93,105.37,0.76,0.90,0.84
281,60.52,-13.77,110.72,0.88,1.12,0.91
282,69.80,-17.71,106.31,0.85,1.10,0.85
283,57.24,-23.22,95.02,0.80,1.08,0.72
284,60.81,-31.11,84.55,0.81,1.07,0.66
285,64.37,-34.05,76.32,0.92,1.01,0.70
286,70.82,-50.32,57.66,0.93,0.98,0.72
287,77.34,-47.05,53.16,0.99,1.12,0.62
288,81.80,-55.82,40.08,0.87,1.13,0.58
289,84.02,-65.88,25.88,0.94,1.17,0.61
290,86.58,-71.53,13.19,0.97,1.27,0.50
291,85.86,-73.02,8.00,0.95,1.40,0.35
292,84.17,-80.32,-7.80,0.91,1.43,0.36
293,87.15,-91.60,-29.89,0.94,1.44,0.30
294,85.60,-93.13,-43.21,1.01,1.51,0.20
295,76.58,-87.63,-55.15,1.06,1.53,0.15
296,76.87,-79.47,-70.69,1.07,1.48,0.05
297,71.04,-62.67,-79.18,1.05,1.54,0.05
298,66.87,-52.34,-89.68,0.92,1.48,-0.01
299,64.44,-42.64,-98.75,0.88,1.47,-0.01
300,64.03,-39.94,-109.18,0.73,1.43,0.04
301,65.51,-38.76,-117.89,0.61,1.38,0.01
302,65.07,-36.85,-120.66,0.52,1.37,0.06
303,68.08,-42.87,-127.89,0.38,1.32,0.07
304,71.36,-48.96,-132.90,0.30,1.29,0.08
305,74.23,-53.28,-133.94,0.21,1.30,0.04
306,80.40,-58.72,-133.91,0.13,1.25,0.05
307,86.52,-62.52,-134.31,0.10,1.20,0.05
308,92.67,-66.52,-133.98,0.04,1.17,0.02
309,98.41,-73.77,-135.77,-0.00,1.17,-0.02
310,103.30,-77.47,-136.61,-0.01,1.17,-0.06
311,104.75,-80.73,-139.65,-0.03,1.17,-0.09
312,107.15,-84.50,-143.37,-0.04,1.14,-0.16
313,108.15,-81.16,-147.51,-0.03,1.13,-0.26
314,104.03,-70.20,-148.38,-0.02,1.12,-0.30
315,100.18,-60.82,-150.35,-0.06,1.09,-0.31
316,97.02,-51.25,-151.92,-0.09,1.06,-0.32
317,94.55,-42.92,-154.05,-0.14,1.01,-0.33
318,91.13,-37.62,-156.93,-0.23,0.98,-0.34
319,88.63,-35.15,-158.73,-0.33,0.96,-0.34
320,88.76,-35.13,-158.99,-0.40,0.92,-0.36
321,85.77,-38.55,-160.37,-0.47,0.92,-0.37
322,81.79,-40.78,-160.23,-0.50,0.90,-0.39
323,75.18,-44.93,-158.95,-0.53,0.90,-0.41
324,68.73,-45.36,-157.82,-0.52,0.86,-0.44
325,61.92,-43.68,-156.87,-0.51,0.82,-0.44
326,55.40,-41.42,-157.22,-0.50,0.78,-0.43
327,48.63,-38.89,-160.23,-0.51,0.74,-0.45
328,41.60,-32.84,-159.92,-0.52,0.73,-0.47
329,34.34,-28.26,-162.87,-0.55,0.70,-0.48
330,23.24,-20.52,-161.27,-0.53,0.73,-0.50
331,13.04,-13.28,-161.88,-0.55,0.70,-0.50
332,0.11,-8.46,-161.89,-0.59,0.69,-0.45
333,-13.04,-6.70,-165.48,-0.65,0.63,-0.44
334,-26.37,-3.02,-164.37,-0.68,0.59,-0.36
335,-36.70,0.76,-163.71,-0.75,0.52,-0.27
336,-44.67,1.63,-160.08,-0.83,0.49,-0.20
337,-47.97,0.05,-155.57,-0.92,0.42,-0.17
338,-56.72,-2.92,-152.79,-1.00,0.38,-0.13
339,-70.47,-13.28,-145.97,-1.11,0.37,-0.11
340,-82.90,-1.53,-130.85,-0.98,0.40,-0.10
341,-95.91,0.52,-118.90,-1.03,0.33,0.01
342,-104.61,3.18,-107.65,-1.01,0.31,0.04
343,-114.02,6.12,-102.06,-0.99,0.23,0.11
344,-125.73,4.84,-103.39,-1.03,0.20,0.19
345,-137.13,1.60,-98.73,-1.07,0.18,0.20
346,-153.34,5.50,-89.16,-1.12,0.17,0.25
347,-158.26,11.83,-73.10,-1.12,0.14,0.31
348,-169.80,11.10,-62.55,-1.21,0.06,0.34
349,-177.68,14.02,-44.89,-1.20,0.06,0.39
350,-183.30,18.95,-26.75,-1.21,0.04,0.50
351,-177.73,6.14,-8.29,-1.35,-0.06,0.62
352,-184.44,-33.10,-24.55,-1.39,-0.32,0.64
353,-188.61,-22.72,9.77,-1.28,-0.06,0.76
354,-191.08,-31.53,20.84,-1.31,-0.15,0.92
355,-193.04,-46.43,38.43,-1.29,-0.08,0.99
356,-185.74,-45.47,59.68,-1.18,-0.10,1.02
357,-183.83,-46.29,78.47,-1.15,-0.15,1.14
358,-172.92,-48.27,93.08,-0.97,-0.25,1.22
359,-165.50,-39.36,112.73,-0.92,-0.25,1.34
360,-155.86,-43.19,121.27,-0.89,-0.28,1.47
361,-146.27,-44.34,132.46,-0.81,-0.28,1.52
362,-128.60,-36.78,149.10,-0.70,-0.24,1.57
363,-113.45,-39.33,157.11,-0.74,-0.28,1.64
364,-93.98,-32.85,170.56,-0.61,-0.16,1.68
365,-87.19,-32.08,180.40,-0.52,-0.11,1.64
366,-77.19,-25.39,190.50,-0.39,-0.03,1.63
367,-69.36,-21.69,192.67,-0.30,-0.01,1.60
368,-64.38,-11.76,197.77,-0.15,0.06,1.53
369,-58.29,-0.84,199.71,-0.08,0.10,1.47
370,-53.07,4.95,197.89,-0.05,0.11,1.43
371,-54.63,10.58,195.34,-0.01,0.13,1.40
372,-45.21,16.76,199.04,0.04,0.17,1.36
373,-43.97,17.53,198.29,0.05,0.23,1.36
374,-41.07,15.79,196.70,0.06,0.25,1.36
375,-36.31,18.93,197.83,0.17,0.25,1.30
376,-33.71,21.42,196.93,0.27,0.30,1.36
377,-35.27,25.60,197.05,0.34,0.33,1.31
378,-22.85,35.27,205.01,0.46,0.27,1.36
379,-16.67,31.51,187.77,0.51,0.22,1.21
380,-18.37,35.10,177.82,0.52,0.33,1.26
381,-19.48,38.18,165.71,0.54,0.35,1.20
382,-16.58,49.85,164.32,0.59,0.44,1.12
383,-20.08,60.02,159.51,0.55,0.48,1.12
384,-23.22,73.94,161.01,0.58,0.54,1.15
385,-19.01,75.27,153.30,0.51,0.46,1.02
386,-15.50,77.92,147.34,0.43,0.50,1.02
387,-11.98,72.52,141.89,0.33,0.52,1.02
388,-14.02,59.91,142.05,0.32,0.55,0.96
389,-11.74,54.08,140.27,0.32,0.62,0.93
390,-15.36,45.21,138.72,0.27,0.67,0.93
391,-14.00,35.36,136.81,0.25,0.67,0.97
392,-9.82,27.74,138.69,0.31,0.67,0.95
393,-6.66,18.69,140.08,0.34,0.67,0.92
394,0.49,6.15,134.81,0.34,0.65,0.91
395,12.75,-4.75,127.48,0.33,0.48,0.79
396,8.06,-14.00,118.67,0.43,0.50,0.88
397,14.60,-15.65,117.08,0.51,0.58,0.93
398,19.56,-19.37,110.96,0.63,0.61,0.83
399,18.93,-19.62,106.34,0.60,0.72,0.80
400,20.49,-48.81,65.92,0.48,0.69,0.96
