,gyro_x,gyro_y,gyro_z,acce_x,acce_y,acce_z
0,7.97,-17.62,0.11,0.30,0.91,"29.71[0m
"
1,-24.06,8.95,-15.69,0.10,0.28,0.92
2,-23.92,8.29,-13.54,0.08,0.27,0.94
3,-24.21,6.15,-11.91,0.06,0.27,0.94
4,-24.38,3.82,-9.91,0.07,0.26,0.96
5,-24.49,2.63,-8.63,0.07,0.26,0.95
6,-24.43,1.89,-7.45,0.08,0.26,0.95
7,-24.93,0.24,-6.53,0.08,0.26,0.95
8,-25.86,-1.28,-5.51,0.07,0.25,0.95
9,-26.93,-2.56,-4.37,0.08,0.25,0.96
10,-28.67,-3.53,-3.27,0.08,0.26,0.95
11,-30.08,-3.54,-2.18,0.08,0.25,0.96
12,-31.16,-3.57,-0.78,0.08,0.23,0.97
13,-31.34,-4.87,0.31,0.06,0.21,0.98
14,-31.31,-5.80,1.24,0.06,0.20,1.00
15,-30.11,-5.62,3.39,0.06,0.18,1.01
16,-28.90,-5.53,5.19,0.06,0.16,1.01
17,-28.55,-5.25,7.02,0.07,0.15,1.02
18,-27.76,-6.43,7.98,0.07,0.15,1.03
19,-27.18,-8.03,8.82,0.07,0.13,1.04
20,-26.46,-9.91,10.17,0.06,0.13,1.04
21,-24.46,-13.11,12.35,0.04,0.14,1.07
22,-26.31,-12.82,14.81,0.06,0.12,1.06
23,-23.83,-14.99,15.65,0.06,0.10,1.08
24,-25.02,-12.12,19.86,0.08,0.10,1.08
25,-34.05,-19.71,27.24,0.04,0.11,1.22
26,-23.65,-16.27,23.80,0.07,0.05,1.17
27,-21.24,-7.24,26.79,0.12,0.00,1.14
28,-12.00,3.60,27.44,0.14,0.01,1.14
29,-17.10,7.86,30.50,0.10,0.02,1.21
30,-16.18,11.82,32.49,0.10,-0.03,1.13
31,-17.27,16.93,34.93,0.07,-0.05,1.21
32,-15.73,22.40,39.10,0.06,-0.09,1.26
33,-13.18,29.91,44.73,0.03,-0.13,1.31
34,-9.24,35.62,50.49,-0.00,-0.17,1.38
35,-4.61,37.24,56.60,-0.03,-0.19,1.42
36,2.76,45.40,59.53,-0.01,-0.25,1.45
37,7.57,42.29,65.91,-0.06,-0.25,1.49
38,12.21,39.56,67.71,-0.09,-0.28,1.51
39,19.15,35.40,71.24,-0.10,-0.29,1.57
40,29.08,31.69,73.01,-0.10,-0.36,1.59
41,34.73,32.82,77.24,-0.06,-0.38,1.64
42,42.24,36.78,83.56,-0.01,-0.41,1.66
43,49.25,42.61,90.06,0.03,-0.46,1.68
44,55.98,52.31,95.88,0.10,-0.48,1.69
45,64.49,61.45,101.08,0.12,-0.50,1.68
46,73.89,58.27,110.20,0.11,-0.53,1.67
47,88.17,60.73,109.31,0.11,-0.54,1.63
48,101.51,53.80,110.27,0.08,-0.49,1.72
49,104.64,66.98,111.77,0.12,-0.46,1.61
50,116.23,47.73,108.96,0.07,-0.43,1.60
51,125.19,30.67,109.28,0.17,-0.34,1.52
52,126.12,26.43,103.21,0.27,-0.31,1.54
53,137.56,17.91,101.34,0.31,-0.31,1.50
54,144.67,21.10,98.79,0.46,-0.31,1.52
55,154.06,21.04,90.14,0.48,-0.31,1.52
56,164.38,32.56,94.38,0.58,-0.24,1.45
57,175.13,34.70,90.11,0.55,-0.22,1.41
58,177.50,32.63,86.64,0.53,-0.16,1.42
59,185.34,28.31,81.56,0.50,-0.18,1.42
60,195.62,23.22,74.24,0.48,-0.16,1.37
61,202.81,15.19,68.92,0.46,-0.13,1.38
62,208.27,10.70,67.62,0.46,-0.09,1.30
63,211.48,4.43,67.54,0.44,-0.04,1.24
64,215.71,-4.52,65.22,0.45,-0.01,1.21
65,224.27,-12.56,61.63,0.46,-0.02,1.19
66,232.92,-20.29,56.64,0.47,0.03,1.15
67,240.20,-25.28,52.67,0.48,0.07,1.09
68,246.12,-29.25,50.82,0.51,0.11,1.01
69,250.61,-30.34,48.78,0.53,0.17,0.93
70,253.21,-32.64,45.42,0.55,0.22,0.87
71,256.93,-37.79,41.53,0.55,0.25,0.81
72,262.81,-38.53,37.62,0.61,0.30,0.76
73,268.81,-36.93,33.85,0.64,0.31,0.71
74,275.30,-36.29,28.53,0.66,0.32,0.66
75,284.29,-34.87,23.02,0.68,0.33,0.63
76,293.97,-35.65,15.59,0.68,0.33,0.59
77,306.26,-38.73,8.08,0.68,0.33,0.57
78,322.41,-35.79,5.39,0.70,0.36,0.54
79,333.71,-45.91,-7.91,0.64,0.30,0.50
80,340.55,-50.03,-14.05,0.62,0.36,0.34
81,348.17,-47.71,-13.05,0.64,0.40,0.24
82,344.40,-48.85,-13.48,0.64,0.44,0.14
83,349.92,-56.38,-15.25,0.62,0.49,0.06
84,344.90,-66.53,-21.77,0.63,0.55,0.02
85,341.86,-59.88,-22.56,0.73,0.56,-0.18
86,334.56,-64.06,-27.05,0.75,0.64,-0.30
87,317.82,-57.37,-38.95,0.71,0.66,-0.28
88,308.53,-52.21,-49.30,0.72,0.66,-0.32
89,314.09,-50.98,-60.72,0.68,0.63,-0.36
90,316.98,-54.26,-69.07,0.66,0.61,-0.42
91,310.26,-57.79,-74.03,0.66,0.67,-0.47
92,305.50,-65.89,-84.64,0.59,0.67,-0.50
93,300.17,-69.34,-93.85,0.62,0.66,-0.55
94,294.43,-64.81,-98.09,0.59,0.65,-0.60
95,286.44,-61.08,-103.71,0.58,0.67,-0.66
96,270.37,-59.44,-109.74,0.53,0.70,-0.74
97,255.89,-57.24,-111.44,0.48,0.70,-0.78
98,242.64,-55.86,-109.82,0.45,0.70,-0.83
99,228.92,-55.31,-112.82,0.43,0.68,-0.87
100,214.76,-60.73,-116.08,0.41,0.68,-0.87
101,205.18,-66.08,-128.21,0.38,0.63,-0.95
102,194.92,-65.19,-132.37,0.39,0.62,-0.96
103,184.52,-63.71,-138.66,0.37,0.62,-0.99
104,174.61,-64.20,-148.44,0.33,0.60,-1.01
105,162.29,-60.58,-157.59,0.30,0.62,-1.06
106,147.22,-56.63,-165.30,0.24,0.63,-1.12
107,129.73,-59.71,-172.58,0.14,0.65,-1.15
108,117.83,-56.90,-175.04,0.12,0.64,-1.24
109,94.70,-54.41,-176.34,0.03,0.64,-1.20
110,79.48,-50.40,-174.43,-0.04,0.59,-1.18
111,64.93,-43.85,-172.02,-0.11,0.55,-1.15
112,50.76,-38.79,-170.18,-0.18,0.54,-1.14
113,38.37,-37.74,-168.64,-0.29,0.51,-1.10
114,23.89,-39.28,-164.18,-0.38,0.52,-1.11
115,8.11,-40.43,-158.23,-0.45,0.53,-1.11
116,-4.99,-38.93,-150.17,-0.49,0.54,-1.12
117,-22.41,-35.73,-140.40,-0.55,0.57,-1.09
118,-38.46,-35.11,-129.73,-0.61,0.56,-1.10
119,-52.96,-38.08,-119.82,-0.65,0.57,-1.07
120,-64.21,-41.62,-114.41,-0.67,0.55,-1.04
121,-72.55,-43.91,-107.54,-0.68,0.56,-0.95
122,-77.39,-46.06,-104.12,-0.68,0.53,-0.94
123,-85.02,-46.50,-100.08,-0.68,0.55,-0.90
124,-94.69,-42.35,-94.78,-0.69,0.57,-0.86
125,-105.63,-37.02,-87.37,-0.74,0.57,-0.81
126,-113.10,-34.66,-79.02,-0.79,0.56,-0.74
127,-122.58,-32.69,-68.53,-0.84,0.58,-0.69
128,-129.76,-35.42,-58.63,-0.90,0.58,-0.59
129,-132.00,-37.59,-47.62,-0.93,0.56,-0.49
130,-132.17,-42.06,-37.56,-0.97,0.55,-0.38
131,-134.69,-38.55,-23.74,-0.95,0.57,-0.30
132,-139.02,-38.66,-11.16,-0.95,0.59,-0.22
133,-145.22,-43.88,1.74,-0.95,0.62,-0.14
134,-149.05,-46.90,12.20,-0.92,0.61,-0.08
135,-150.02,-45.86,21.25,-0.88,0.62,0.02
136,-149.92,-41.10,28.49,-0.85,0.62,0.10
137,-151.36,-31.88,31.07,-0.81,0.64,0.18
138,-154.02,-27.63,41.34,-0.80,0.67,0.24
139,-154.46,-21.56,44.06,-0.80,0.67,0.34
140,-151.91,-14.29,44.05,-0.82,0.65,0.43
141,-149.18,-10.73,50.69,-0.88,0.71,0.56
142,-145.53,-6.27,59.56,-0.91,0.68,0.64
143,-140.35,-8.93,70.84,-0.96,0.69,0.73
144,-134.99,-8.40,82.69,-0.94,0.69,0.83
145,-129.33,-7.34,93.71,-0.90,0.73,0.87
146,-123.05,-8.52,101.24,-0.86,0.74,0.94
147,-113.25,-7.94,105.79,-0.78,0.71,0.96
148,-107.65,-5.68,113.91,-0.68,0.77,1.04
149,-100.81,6.56,117.39,-0.60,0.77,1.07
150,-90.96,16.08,117.65,-0.57,0.78,1.10
151,-82.95,24.18,118.84,-0.57,0.80,1.13
152,-74.89,28.63,123.18,-0.57,0.83,1.14
153,-66.32,26.27,130.34,-0.59,0.89,1.16
154,-59.50,25.50,137.48,-0.53,0.87,1.12
155,-51.34,21.02,143.68,-0.44,0.90,1.13
156,-40.23,24.24,145.16,-0.29,0.90,1.12
157,-29.53,23.66,144.63,-0.17,0.90,1.08
158,-21.42,28.15,141.80,-0.02,0.94,1.04
159,-15.69,37.34,136.60,0.09,0.95,1.00
160,-9.94,45.82,129.74,0.16,0.97,0.96
161,-4.37,52.75,122.70,0.18,0.99,0.93
162,1.19,59.59,117.05,0.19,1.00,0.92
163,6.63,65.39,113.53,0.18,0.98,0.92
164,12.79,70.84,111.34,0.17,0.98,0.90
165,18.99,69.19,111.40,0.13,1.00,0.93
166,24.14,65.68,111.25,0.18,1.00,0.92
167,30.56,62.90,109.62,0.21,0.97,0.92
168,37.94,59.91,107.59,0.26,0.96,0.91
169,44.53,57.76,104.46,0.32,0.97,0.90
170,49.86,58.93,98.95,0.37,0.95,0.87
171,54.03,60.47,97.42,0.42,0.96,0.84
172,58.47,61.68,90.79,0.45,0.95,0.80
173,62.87,64.18,84.56,0.47,0.96,0.77
174,67.63,68.84,80.08,0.48,0.96,0.73
175,72.23,70.76,74.87,0.44,0.95,0.68
176,75.53,70.46,71.42,0.41,0.97,0.64
177,78.60,67.02,69.10,0.37,0.96,0.61
178,82.56,62.15,68.92,0.36,0.94,0.60
179,87.13,56.31,68.20,0.34,0.90,0.57
180,90.24,51.71,68.12,0.35,0.89,0.54
181,92.11,47.82,68.87,0.37,0.89,0.51
182,94.15,42.58,69.18,0.38,0.84,0.48
183,96.81,37.79,68.15,0.39,0.85,0.47
184,99.11,34.09,68.05,0.42,0.84,0.45
185,101.11,30.95,68.20,0.45,0.83,0.40
186,103.83,26.17,66.56,0.47,0.81,0.37
187,107.92,21.30,62.81,0.48,0.81,0.31
188,113.22,19.08,59.02,0.51,0.84,0.27
189,117.50,20.06,56.03,0.54,0.84,0.20
190,120.21,19.63,53.59,0.54,0.85,0.15
191,121.69,15.02,50.27,0.54,0.86,0.10
192,122.35,9.97,46.08,0.56,0.87,0.05
193,122.92,6.27,40.84,0.57,0.87,0.02
194,123.05,3.83,36.55,0.59,0.84,-0.01
195,124.78,3.16,32.17,0.61,0.81,-0.06
196,128.17,2.93,26.47,0.61,0.79,-0.09
197,127.82,1.08,22.24,0.61,0.79,-0.11
198,127.53,-7.39,18.29,0.58,0.79,-0.16
199,126.53,-13.71,14.11,0.57,0.79,-0.20
200,126.95,-21.33,11.50,0.57,0.78,-0.25
201,127.63,-29.08,9.13,0.57,0.79,-0.32
202,127.51,-35.13,7.48,0.59,0.80,-0.38
203,127.01,-44.87,4.24,0.59,0.78,-0.43
204,126.24,-54.18,-0.67,0.61,0.79,-0.48
205,124.12,-60.50,-4.79,0.62,0.79,-0.55
206,122.06,-67.91,-9.07,0.60,0.79,-0.58
207,120.63,-74.53,-12.24,0.65,0.76,-0.71
208,119.40,-79.95,-18.69,0.66,0.73,-0.78
209,115.39,-84.98,-23.37,0.67,0.75,-0.86
210,107.92,-90.21,-27.21,0.66,0.76,-0.95
211,109.68,-99.02,-32.43,0.65,0.74,-1.07
212,94.20,-98.24,-36.49,0.68,0.80,-1.09
213,88.58,-103.27,-46.12,0.62,0.73,-1.21
214,79.11,-107.25,-50.26,0.62,0.77,-1.28
215,68.41,-113.54,-56.67,0.56,0.76,-1.34
216,55.59,-118.79,-61.42,0.56,0.76,-1.40
217,42.34,-117.36,-67.45,0.54,0.75,-1.42
218,65.97,-127.62,-77.74,0.45,0.69,-1.51
219,19.24,-115.22,-72.32,0.60,0.76,-1.57
220,18.43,-128.24,-85.62,0.41,0.69,-1.46
221,-4.55,-123.57,-86.96,0.43,0.77,-1.37
222,-13.37,-120.52,-96.52,0.34,0.66,-1.41
223,-24.66,-117.07,-98.96,0.30,0.69,-1.37
224,-36.24,-114.93,-100.46,0.25,0.69,-1.34
225,-46.41,-111.80,-103.07,0.20,0.66,-1.28
226,-54.46,-107.86,-106.21,0.16,0.65,-1.23
227,-61.74,-99.77,-108.12,0.12,0.64,-1.20
228,-67.47,-95.98,-110.24,0.05,0.62,-1.14
229,-74.32,-92.82,-111.80,0.00,0.63,-1.10
230,-72.14,-95.05,-119.08,-0.07,0.62,-1.07
231,-89.11,-86.69,-108.75,-0.08,0.66,-1.04
232,-92.09,-89.37,-113.91,-0.20,0.60,-1.00
233,-96.08,-90.82,-110.70,-0.24,0.62,-0.94
234,-102.89,-86.60,-109.34,-0.28,0.61,-0.88
235,-109.97,-81.79,-101.98,-0.31,0.61,-0.81
236,-116.98,-77.08,-96.92,-0.36,0.61,-0.72
237,-122.92,-71.24,-93.63,-0.38,0.60,-0.70
238,-127.44,-66.43,-91.47,-0.43,0.59,-0.60
239,-129.40,-63.57,-90.26,-0.49,0.57,-0.49
240,-132.64,-57.95,-90.27,-0.54,0.57,-0.46
241,-138.99,-53.36,-85.56,-0.60,0.60,-0.42
242,-145.25,-52.14,-80.29,-0.67,0.61,-0.39
243,-151.95,-51.50,-74.11,-0.74,0.60,-0.32
244,-155.77,-51.28,-66.90,-0.80,0.58,-0.23
245,-155.63,-54.61,-60.90,-0.87,0.52,-0.13
246,-159.31,-49.83,-48.73,-0.87,0.52,-0.07
247,-163.18,-45.71,-35.95,-0.91,0.50,0.01
248,-167.21,-42.11,-24.44,-0.94,0.51,0.06
249,-170.75,-41.69,-14.82,-0.96,0.51,0.09
250,-169.50,-43.11,-7.45,-0.95,0.50,0.15
251,-166.23,-40.60,-1.27,-0.94,0.48,0.22
252,-162.09,-44.09,2.90,-0.98,0.46,0.36
253,-161.79,-37.86,11.63,-0.93,0.45,0.43
254,-161.11,-27.65,22.06,-0.95,0.46,0.48
255,-160.52,-20.00,31.69,-0.92,0.46,0.54
256,-156.92,-13.24,37.10,-0.92,0.48,0.59
257,-155.71,-7.24,42.87,-0.96,0.52,0.67
258,-154.02,-5.51,50.47,-1.00,0.55,0.68
259,-151.66,-4.78,59.04,-1.03,0.56,0.75
260,-150.05,-3.80,72.46,-1.04,0.55,0.87
261,-145.33,-5.51,84.69,-1.02,0.52,0.98
262,-140.06,-4.12,95.82,-0.98,0.50,1.10
263,-131.45,2.37,107.36,-0.94,0.49,1.16
264,-120.47,2.64,114.82,-0.92,0.49,1.27
265,-108.43,7.22,122.21,-0.85,0.51,1.30
266,-99.68,11.01,130.43,-0.79,0.51,1.37
267,-88.67,18.70,137.33,-0.70,0.52,1.42
268,-79.16,27.15,142.96,-0.63,0.54,1.43
269,-69.91,33.54,146.63,-0.56,0.56,1.42
270,-62.06,39.28,150.21,-0.48,0.59,1.39
271,-53.18,46.11,151.97,-0.39,0.60,1.33
272,-47.15,55.97,155.79,-0.31,0.65,1.30
273,-35.97,55.71,154.90,-0.31,0.64,1.26
274,-27.45,55.79,154.93,-0.25,0.69,1.20
275,-21.34,57.82,156.87,-0.18,0.73,1.16
276,-14.72,59.37,159.07,-0.10,0.76,1.12
277,-8.29,60.55,159.39,-0.01,0.78,1.11
278,-3.91,62.98,156.98,0.09,0.80,1.11
279,-0.05,69.65,154.41,0.21,0.81,1.11
280,5.47,79.62,151.07,0.28,0.79,1.12
281,12.37,85.94,145.97,0.32,0.77,1.15
282,19.63,88.21,141.01,0.33,0.76,1.15
283,25.37,88.27,137.77,0.34,0.78,1.14
284,30.84,87.25,135.40,0.37,0.78,1.12
285,38.46,83.07,133.15,0.38,0.79,1.09
286,44.84,76.72,131.15,0.41,0.81,1.06
287,50.26,71.79,130.00,0.48,0.84,1.02
288,55.39,68.93,127.30,0.56,0.84,0.98
289,60.79,67.37,122.70,0.65,0.86,0.94
290,66.38,66.58,116.08,0.72,0.88,0.92
291,69.94,67.97,107.91,0.77,0.87,0.88
292,74.02,69.25,98.29,0.79,0.88,0.87
293,80.84,69.42,89.59,0.82,0.85,0.85
294,88.05,69.08,79.40,0.83,0.85,0.83
295,93.16,69.80,70.50,0.81,0.87,0.80
296,96.89,68.98,65.95,0.78,0.88,0.76
297,101.47,64.85,63.08,0.73,0.88,0.71
298,106.63,54.87,60.31,0.69,0.89,0.68
299,111.71,45.36,56.79,0.68,0.92,0.62
300,116.63,37.73,54.47,0.68,0.92,0.58
301,120.96,30.31,53.33,0.68,0.93,0.52
302,126.00,23.63,50.78,0.71,0.93,0.46
303,130.15,16.55,46.47,0.74,0.93,0.43
304,135.65,11.86,40.56,0.76,0.93,0.37
305,140.31,8.96,34.95,0.80,0.92,0.32
306,143.15,8.72,29.71,0.82,0.91,0.26
307,147.34,6.46,22.60,0.81,0.90,0.24
308,150.98,3.73,16.58,0.80,0.89,0.17
309,152.93,3.27,10.12,0.81,0.90,0.11
310,155.77,-0.58,4.14,0.78,0.88,0.06
311,158.08,-4.66,-1.97,0.75,0.88,0.00
312,159.18,-9.57,-7.62,0.73,0.87,-0.05
313,160.03,-15.92,-13.36,0.71,0.86,-0.12
314,160.61,-24.37,-19.10,0.67,0.85,-0.16
315,159.95,-30.98,-24.60,0.65,0.86,-0.24
316,159.02,-37.04,-29.97,0.63,0.84,-0.30
317,157.15,-41.88,-33.71,0.62,0.84,-0.39
318,155.98,-47.65,-38.50,0.58,0.80,-0.44
319,155.59,-55.88,-42.78,0.56,0.77,-0.50
320,152.76,-62.87,-45.80,0.53,0.78,-0.60
321,148.34,-71.77,-48.17,0.50,0.77,-0.69
322,141.73,-78.98,-48.44,0.49,0.78,-0.78
323,136.58,-89.22,-51.89,0.46,0.77,-0.87
324,132.15,-100.70,-55.07,0.44,0.77,-0.94
325,125.71,-111.82,-57.76,0.45,0.77,-1.02
326,116.70,-118.26,-61.44,0.46,0.77,-1.12
327,106.44,-118.63,-63.13,0.46,0.79,-1.21
328,94.35,-121.07,-67.02,0.44,0.78,-1.28
329,84.96,-121.86,-69.83,0.43,0.79,-1.35
330,67.91,-121.54,-71.48,0.43,0.81,-1.41
331,53.34,-122.79,-76.05,0.39,0.82,-1.38
332,41.42,-118.75,-78.81,0.37,0.79,-1.42
333,30.60,-120.96,-84.06,0.34,0.78,-1.40
334,17.60,-116.92,-87.45,0.32,0.77,-1.41
335,6.09,-113.22,-90.70,0.28,0.76,-1.37
336,-6.43,-112.03,-92.20,0.25,0.77,-1.35
337,-18.93,-110.12,-93.60,0.21,0.76,-1.30
338,-29.88,-108.96,-96.44,0.18,0.74,-1.26
339,-38.00,-107.16,-100.27,0.17,0.71,-1.20
340,-45.79,-104.08,-103.98,0.14,0.71,-1.17
341,-55.62,-98.96,-106.52,0.13,0.71,-1.13
342,-63.05,-96.61,-110.72,0.04,0.66,-1.09
343,-71.39,-95.82,-111.83,0.01,0.65,-1.04
344,-77.25,-94.96,-115.51,-0.04,0.62,-1.00
345,-85.85,-90.06,-113.53,-0.09,0.63,-0.97
346,-96.60,-85.76,-111.42,-0.14,0.62,-0.96
347,-107.60,-83.94,-109.40,-0.20,0.62,-0.92
348,-116.50,-82.78,-106.53,-0.25,0.59,-0.87
349,-125.39,-77.71,-103.48,-0.28,0.57,-0.83
350,-133.01,-73.01,-101.82,-0.32,0.54,-0.78
351,-139.83,-70.78,-102.75,-0.39,0.52,-0.71
352,-150.85,-63.08,-98.52,-0.44,0.54,-0.69
353,-162.14,-55.45,-93.34,-0.51,0.51,-0.66
354,-170.82,-51.60,-89.30,-0.59,0.49,-0.59
355,-175.33,-53.34,-88.34,-0.68,0.44,-0.52
356,-178.24,-55.80,-86.85,-0.75,0.42,-0.43
357,-182.49,-51.33,-80.05,-0.79,0.40,-0.36
358,-182.52,-55.68,-77.16,-0.89,0.34,-0.25
359,-185.33,-55.10,-69.08,-0.90,0.32,-0.16
360,-192.93,-45.98,-53.53,-0.95,0.32,-0.06
361,-201.22,-36.81,-36.15,-1.00,0.31,0.03
362,-208.73,-38.24,-23.40,-1.11,0.27,0.13
363,-211.08,-38.96,-10.18,-1.17,0.25,0.25
364,-208.81,-40.52,4.75,-1.22,0.25,0.35
365,-207.18,-45.98,19.48,-1.26,0.28,0.42
366,-205.97,-49.18,36.63,-1.24,0.29,0.53
367,-199.65,-54.69,51.85,-1.21,0.27,0.65
368,-192.27,-55.40,65.73,-1.10,0.24,0.78
369,-185.69,-53.02,76.15,-1.03,0.27,0.86
370,-182.32,-38.12,86.46,-0.90,0.29,0.90
371,-179.02,-27.10,92.53,-0.87,0.31,0.98
372,-176.11,-18.20,98.44,-0.85,0.37,1.07
373,-172.66,-12.61,102.44,-0.83,0.41,1.16
374,-168.08,-5.08,103.98,-0.81,0.43,1.27
375,-162.63,3.60,113.47,-0.77,0.41,1.33
376,-152.82,7.79,120.99,-0.74,0.41,1.44
377,-139.22,11.21,124.76,-0.71,0.36,1.53
378,-124.58,18.06,129.65,-0.66,0.34,1.62
379,-112.00,25.24,135.08,-0.61,0.34,1.70
380,-98.66,22.73,139.89,-0.57,0.35,1.71
381,-74.31,43.98,125.30,-0.31,0.22,1.52
382,-71.63,37.95,142.52,-0.48,0.35,1.65
383,-57.05,38.12,145.34,-0.31,0.46,1.61
384,-43.82,44.09,144.69,-0.26,0.50,1.53
385,-35.77,54.90,143.51,-0.18,0.58,1.47
386,-28.21,59.83,141.31,-0.17,0.62,1.37
387,-21.82,64.05,142.76,-0.15,0.65,1.26
388,-18.20,65.51,144.78,-0.15,0.70,1.17
389,-15.39,61.04,144.53,-0.17,0.73,1.14
390,-13.11,60.40,146.73,-0.13,0.74,1.09
391,-9.88,61.56,149.48,-0.09,0.72,1.08
392,-5.34,61.07,152.26,-0.05,0.70,1.09
393,-1.22,59.63,153.36,0.01,0.68,1.11
394,2.87,59.40,153.19,0.08,0.66,1.11
395,6.78,63.01,153.59,0.15,0.63,1.14
396,11.89,64.31,152.12,0.20,0.60,1.16
397,18.31,64.60,149.13,0.27,0.58,1.15
398,24.34,69.57,148.53,0.33,0.60,1.14
399,28.27,73.22,146.43,0.34,0.63,1.11
400,30.93,75.88,146.26,0.36,0.66,1.07
