,gyro_x,gyro_y,gyro_z,acce_x,acce_y,acce_z
0,8.14,-0.02,-14.43,0.05,0.04,1.06
1,8.78,-0.11,-14.09,0.05,0.05,1.05
2,9.04,-1.60,-14.37,0.03,0.05,1.04
3,8.64,-0.84,-13.19,0.03,0.06,1.03
4,10.23,-3.27,-15.33,0.03,0.01,1.05
5,9.05,-2.78,-12.38,0.04,0.05,1.04
6,7.68,0.20,-10.63,0.03,0.05,1.06
7,6.46,3.11,-8.75,0.03,0.05,1.06
8,6.64,5.05,-7.05,0.06,0.03,1.05
9,6.70,2.49,-5.76,0.01,0.04,1.08
10,6.55,4.89,-4.00,0.04,0.04,1.07
11,6.41,5.76,-3.13,0.02,0.04,1.08
12,6.27,5.85,-2.41,0.03,0.04,1.07
13,5.98,5.80,-1.71,0.03,0.04,1.06
14,5.63,6.14,-1.80,0.04,0.04,1.07
15,5.60,5.25,-2.52,0.04,0.04,1.07
16,5.73,5.30,-3.02,0.03,0.04,1.08
17,6.29,4.60,-3.68,0.03,0.04,1.10
18,7.07,3.45,-3.21,0.00,0.03,1.09
19,7.80,1.30,-2.46,-0.01,0.04,1.11
20,8.17,0.38,-0.61,-0.01,0.04,1.09
21,8.72,-0.92,0.78,-0.01,0.04,1.09
22,8.76,-0.03,2.43,-0.00,0.04,1.11
23,8.89,1.16,3.74,-0.00,0.04,1.10
24,9.44,0.82,4.87,-0.00,0.04,1.12
25,10.02,-0.35,5.33,-0.00,0.03,1.14
26,11.89,-4.02,4.46,-0.01,0.01,1.18
27,14.56,-8.34,3.73,-0.00,-0.00,1.20
28,17.50,-10.02,3.24,0.00,-0.01,1.22
29,21.27,-12.78,3.19,-0.02,-0.02,1.27
30,26.14,-14.78,3.19,-0.03,-0.03,1.29
31,29.37,-15.24,4.15,-0.05,-0.03,1.29
32,34.03,-18.40,4.00,-0.10,-0.06,1.32
33,37.86,-19.85,5.21,-0.13,-0.07,1.34
34,40.79,-18.60,8.21,-0.17,-0.09,1.38
35,44.99,-18.84,12.29,-0.23,-0.11,1.44
36,49.92,-13.65,18.08,-0.24,-0.13,1.47
37,53.83,-6.87,24.15,-0.28,-0.15,1.51
38,58.67,0.66,30.49,-0.30,-0.18,1.55
39,60.67,7.59,36.49,-0.36,-0.17,1.61
40,67.44,16.90,46.34,-0.33,-0.19,1.55
41,73.59,16.32,52.43,-0.41,-0.22,1.57
42,78.99,19.83,61.08,-0.38,-0.23,1.56
43,85.33,18.00,68.76,-0.38,-0.24,1.57
44,91.97,13.85,75.10,-0.36,-0.25,1.58
45,99.15,9.79,79.92,-0.33,-0.26,1.59
46,105.82,8.35,86.61,-0.30,-0.27,1.59
47,118.84,5.54,95.44,-0.27,-0.30,1.62
48,123.92,5.57,99.98,-0.16,-0.32,1.55
49,131.68,4.31,104.53,-0.15,-0.29,1.59
50,140.18,3.71,110.26,-0.09,-0.28,1.59
51,148.64,-1.60,110.47,-0.05,-0.30,1.55
52,156.26,-7.42,111.39,0.01,-0.26,1.50
53,163.16,-14.50,111.95,0.04,-0.24,1.50
54,171.10,-21.25,112.69,0.08,-0.21,1.49
55,180.78,-22.06,112.11,0.15,-0.19,1.49
56,188.37,-18.50,111.71,0.21,-0.15,1.44
57,196.26,-17.22,109.18,0.27,-0.13,1.40
58,204.32,-16.50,103.51,0.32,-0.09,1.36
59,211.88,-15.92,97.13,0.36,-0.06,1.32
60,216.87,-11.59,92.90,0.37,-0.02,1.27
61,221.56,-11.85,88.69,0.37,0.01,1.27
62,227.11,-13.51,84.38,0.37,0.03,1.25
63,230.69,-14.31,79.82,0.41,0.08,1.22
64,235.59,-5.19,79.69,0.48,0.10,1.16
65,240.14,-0.26,77.59,0.45,0.13,1.16
66,248.17,1.13,76.92,0.46,0.12,1.18
67,259.27,-0.82,73.11,0.47,0.12,1.18
68,265.16,-5.47,71.80,0.44,0.17,1.11
69,270.34,-10.73,70.82,0.45,0.20,1.05
70,275.02,-23.71,66.32,0.44,0.20,0.99
71,279.74,-31.53,63.91,0.53,0.25,0.90
72,284.84,-31.77,60.20,0.61,0.28,0.83
73,288.46,-28.38,52.72,0.67,0.29,0.80
74,293.45,-21.01,46.38,0.74,0.30,0.76
75,300.92,-15.60,38.43,0.78,0.31,0.74
76,305.69,-7.04,34.15,0.82,0.35,0.62
77,309.97,-7.62,28.81,0.80,0.35,0.53
78,314.43,-12.41,19.62,0.81,0.37,0.45
79,318.81,-17.42,11.76,0.82,0.38,0.35
80,320.38,-22.55,4.53,0.80,0.41,0.24
81,316.90,-26.52,0.29,0.78,0.45,0.13
82,312.84,-36.03,-5.34,0.78,0.46,0.04
83,309.37,-43.27,-12.20,0.79,0.48,-0.06
84,304.24,-46.38,-18.61,0.82,0.51,-0.15
85,301.27,-50.06,-28.55,0.83,0.50,-0.16
86,298.90,-48.11,-40.43,0.86,0.49,-0.20
87,295.62,-43.21,-48.21,0.85,0.50,-0.27
88,291.88,-42.61,-56.06,0.80,0.51,-0.34
89,288.06,-44.89,-61.71,0.77,0.50,-0.41
90,282.60,-51.69,-64.90,0.76,0.50,-0.46
91,275.98,-47.71,-71.89,0.71,0.56,-0.49
92,267.08,-41.73,-78.05,0.74,0.55,-0.61
93,257.59,-45.16,-87.19,0.65,0.55,-0.67
94,246.09,-54.69,-92.06,0.65,0.58,-0.66
95,234.70,-56.49,-98.49,0.68,0.59,-0.76
96,221.08,-56.38,-104.31,0.67,0.61,-0.82
97,205.53,-61.04,-111.04,0.63,0.62,-0.88
98,190.44,-61.36,-117.83,0.64,0.64,-0.92
99,176.58,-59.39,-129.45,0.61,0.59,-0.94
100,161.04,-57.94,-137.57,0.55,0.60,-0.96
101,145.16,-56.05,-142.55,0.49,0.58,-1.03
102,128.81,-55.82,-146.79,0.42,0.57,-1.03
103,115.33,-63.77,-154.35,0.32,0.53,-1.00
104,103.08,-65.11,-159.92,0.30,0.53,-1.01
105,90.96,-65.83,-164.66,0.22,0.49,-0.99
106,78.12,-67.08,-165.36,0.16,0.49,-0.99
107,63.95,-67.76,-163.68,0.08,0.48,-0.99
108,49.10,-66.37,-161.33,0.03,0.48,-1.01
109,35.24,-65.22,-159.92,-0.03,0.47,-1.00
110,19.39,-61.91,-156.66,-0.09,0.47,-1.01
111,3.56,-59.24,-154.46,-0.14,0.47,-1.03
112,-12.46,-62.35,-154.56,-0.23,0.47,-1.01
113,-29.60,-64.12,-153.79,-0.29,0.48,-1.01
114,-45.10,-67.73,-154.69,-0.36,0.46,-1.02
115,-59.15,-74.67,-156.15,-0.44,0.46,-0.98
116,-70.76,-81.79,-158.32,-0.50,0.43,-0.90
117,-81.53,-83.80,-157.44,-0.58,0.42,-0.84
118,-88.47,-82.31,-149.15,-0.66,0.40,-0.75
119,-99.82,-76.03,-141.53,-0.82,0.46,-0.61
120,-102.69,-68.60,-140.50,-0.88,0.35,-0.53
121,-107.73,-50.05,-143.95,-0.77,0.39,-0.59
122,-108.63,-59.27,-112.23,-1.11,0.34,-0.39
123,-119.53,-55.21,-96.09,-1.24,0.40,-0.33
124,-128.31,-54.69,-76.24,-1.32,0.44,-0.31
125,-139.59,-54.00,-55.13,-1.37,0.49,-0.32
126,-148.85,-51.68,-36.49,-1.37,0.49,-0.26
127,-159.59,-53.91,-18.99,-1.35,0.51,-0.21
128,-169.18,-55.69,-1.44,-1.30,0.52,-0.17
129,-174.23,-55.63,12.31,-1.25,0.49,-0.06
130,-179.02,-52.18,22.79,-1.19,0.48,0.11
131,-178.69,-37.60,28.90,-1.06,0.47,0.25
132,-177.53,-23.98,38.67,-1.01,0.49,0.22
133,-174.24,-25.07,43.02,-1.05,0.48,0.36
134,-170.53,-22.40,50.72,-1.05,0.49,0.42
135,-166.56,-12.73,60.24,-1.00,0.52,0.49
136,-163.30,-1.18,66.70,-0.94,0.53,0.49
137,-160.32,6.09,74.76,-0.92,0.58,0.52
138,-155.60,6.98,76.61,-0.88,0.62,0.51
139,-154.64,8.03,80.49,-0.87,0.64,0.49
140,-155.92,13.08,83.69,-0.84,0.69,0.48
141,-157.95,11.69,87.95,-0.86,0.72,0.50
142,-153.88,5.74,87.04,-0.84,0.68,0.53
143,-155.88,2.64,90.78,-0.81,0.73,0.54
144,-159.51,4.50,98.84,-0.83,0.75,0.55
145,-160.26,11.15,107.68,-0.85,0.74,0.59
146,-161.01,17.89,115.94,-0.78,0.68,0.69
147,-160.96,29.92,130.12,-0.76,0.73,0.91
148,-147.69,43.97,131.13,-0.60,0.61,0.90
149,-140.60,56.27,133.28,-0.55,0.64,0.98
150,-129.62,57.47,138.75,-0.62,0.63,1.07
151,-116.90,65.34,142.63,-0.59,0.69,1.16
152,-101.33,74.18,146.38,-0.58,0.69,1.20
153,-89.80,71.47,154.85,-0.62,0.75,1.20
154,-81.89,58.15,166.49,-0.63,0.79,1.17
155,-77.34,45.25,173.53,-0.51,0.82,1.13
156,-73.02,40.11,175.73,-0.35,0.84,1.13
157,-68.85,43.21,175.45,-0.21,0.86,1.11
158,-66.56,46.95,175.60,-0.10,0.89,1.11
159,-62.73,48.82,174.02,0.01,0.91,1.15
160,-57.68,52.90,168.12,0.15,0.92,1.16
161,-52.85,58.75,158.18,0.28,0.91,1.20
162,-48.87,66.93,146.92,0.38,0.91,1.25
163,-42.95,75.83,133.47,0.44,0.91,1.29
164,-36.49,87.40,122.32,0.49,0.92,1.37
165,-28.06,104.27,106.49,0.51,0.90,1.37
166,-21.98,120.61,96.79,0.43,0.88,1.45
167,-8.08,126.69,97.86,0.34,0.92,1.42
168,4.69,130.11,95.77,0.23,0.90,1.43
169,15.28,125.44,96.44,0.11,0.91,1.41
170,25.15,116.41,99.83,0.04,0.91,1.39
171,34.41,102.69,105.27,-0.02,0.92,1.36
172,42.81,82.29,112.47,-0.07,0.91,1.34
173,51.24,62.02,120.03,-0.03,0.89,1.31
174,60.35,44.49,119.91,0.05,0.87,1.27
175,65.97,38.27,119.69,0.18,0.89,1.20
176,69.56,39.48,119.63,0.26,0.87,1.17
177,74.29,45.21,120.66,0.33,0.86,1.16
178,82.52,49.07,119.27,0.36,0.83,1.17
179,93.10,52.34,116.32,0.41,0.81,1.16
180,103.40,58.75,113.57,0.48,0.80,1.11
181,112.60,61.40,110.11,0.48,0.81,1.04
182,119.83,58.67,107.86,0.47,0.80,0.95
183,125.47,54.27,106.18,0.49,0.81,0.87
184,130.69,47.15,103.71,0.50,0.80,0.84
185,134.93,43.56,101.88,0.55,0.79,0.78
186,140.81,40.50,97.98,0.59,0.77,0.72
187,147.34,39.44,96.20,0.62,0.74,0.68
188,151.89,35.62,91.82,0.62,0.74,0.63
189,156.17,32.40,87.33,0.65,0.73,0.57
190,161.65,25.02,81.80,0.65,0.71,0.56
191,167.68,18.21,76.08,0.67,0.68,0.53
192,173.44,12.09,69.97,0.66,0.67,0.49
193,178.53,9.31,66.56,0.67,0.67,0.42
194,182.99,5.25,64.52,0.65,0.65,0.42
195,188.21,-2.58,62.43,0.64,0.64,0.39
196,191.40,-6.95,61.65,0.67,0.65,0.31
197,195.68,-15.88,58.29,0.67,0.62,0.29
198,201.10,-25.54,54.56,0.69,0.60,0.26
199,204.67,-32.37,51.66,0.71,0.60,0.21
200,208.29,-36.47,48.72,0.74,0.59,0.15
201,211.66,-37.63,45.16,0.77,0.57,0.08
202,217.05,-45.05,39.83,0.77,0.54,0.07
203,222.78,-51.13,33.24,0.79,0.52,0.00
204,226.79,-49.24,28.08,0.82,0.52,-0.07
205,227.83,-43.91,27.05,0.80,0.52,-0.16
206,230.23,-41.62,24.37,0.78,0.47,-0.21
207,232.43,-45.59,22.60,0.75,0.45,-0.26
208,234.73,-50.89,20.87,0.73,0.44,-0.34
209,234.87,-56.84,20.60,0.70,0.44,-0.44
210,234.87,-70.56,19.73,0.65,0.42,-0.52
211,236.63,-86.70,16.87,0.64,0.39,-0.61
212,234.96,-102.15,15.83,0.66,0.39,-0.74
213,237.44,-120.06,7.65,0.60,0.34,-0.74
214,228.43,-124.40,8.41,0.68,0.43,-0.95
215,218.46,-135.37,6.84,0.61,0.44,-0.99
216,206.95,-137.19,1.86,0.71,0.43,-1.13
217,191.77,-150.32,-2.21,0.72,0.40,-1.24
218,183.88,-117.60,-1.42,1.11,0.42,-1.38
219,161.18,-157.08,-18.89,0.70,0.38,-1.43
220,138.89,-152.40,-24.98,0.71,0.53,-1.47
221,119.18,-153.98,-43.01,0.75,0.46,-1.51
222,96.43,-157.01,-56.60,0.72,0.49,-1.54
223,73.82,-146.26,-70.61,0.77,0.49,-1.65
224,50.70,-136.20,-83.42,0.74,0.47,-1.66
225,26.06,-125.47,-93.22,0.68,0.47,-1.64
226,3.65,-117.91,-101.53,0.62,0.43,-1.60
227,-16.20,-111.89,-109.48,0.57,0.38,-1.54
228,-32.81,-109.85,-116.43,0.49,0.34,-1.46
229,-47.13,-108.76,-122.21,0.42,0.30,-1.36
230,-58.37,-106.23,-127.28,0.36,0.26,-1.29
231,-68.17,-101.11,-129.22,0.29,0.25,-1.21
232,-77.19,-94.89,-129.24,0.23,0.24,-1.18
233,-86.82,-90.35,-127.18,0.14,0.26,-1.15
234,-97.62,-87.39,-123.60,0.07,0.28,-1.12
235,-105.86,-88.23,-121.76,0.02,0.28,-1.08
236,-114.43,-86.34,-119.57,-0.02,0.30,-1.05
237,-119.18,-89.86,-120.38,-0.07,0.30,-0.99
238,-123.94,-88.87,-122.15,-0.09,0.31,-0.94
239,-130.73,-85.44,-122.21,-0.11,0.32,-0.92
240,-137.85,-85.18,-120.87,-0.17,0.33,-0.88
241,-144.18,-85.51,-119.69,-0.22,0.33,-0.83
242,-151.34,-80.90,-118.55,-0.23,0.33,-0.81
243,-161.18,-71.08,-113.54,-0.27,0.35,-0.78
244,-169.91,-68.38,-111.05,-0.37,0.33,-0.70
245,-175.28,-70.85,-109.07,-0.45,0.30,-0.61
246,-178.87,-71.36,-106.43,-0.53,0.30,-0.52
247,-184.58,-74.29,-100.67,-0.61,0.31,-0.42
248,-188.49,-72.05,-96.02,-0.68,0.31,-0.39
249,-194.37,-75.01,-89.60,-0.78,0.31,-0.30
250,-193.11,-69.63,-79.21,-0.89,0.30,-0.23
251,-204.20,-78.35,-61.56,-1.05,0.35,-0.17
252,-214.98,-73.62,-50.02,-1.15,0.37,-0.08
253,-219.57,-73.18,-37.68,-1.10,0.33,-0.05
254,-218.12,-78.47,-25.42,-1.24,0.28,0.15
255,-217.51,-83.66,-13.27,-1.32,0.28,0.32
256,-220.49,-75.92,1.62,-1.31,0.34,0.41
257,-217.98,-58.55,13.80,-1.31,0.33,0.44
258,-218.18,-47.95,30.84,-1.38,0.39,0.52
259,-221.40,-41.63,47.16,-1.41,0.41,0.57
260,-222.23,-33.86,62.53,-1.40,0.43,0.68
261,-223.15,-21.08,76.98,-1.35,0.47,0.75
262,-225.36,-8.29,88.93,-1.33,0.48,0.83
263,-222.66,10.17,99.07,-1.26,0.45,1.00
264,-216.17,19.66,104.32,-1.21,0.45,1.15
265,-209.22,23.39,114.98,-1.23,0.43,1.22
266,-196.47,30.41,128.85,-1.18,0.46,1.31
267,-181.89,38.87,139.36,-1.08,0.44,1.41
268,-162.05,40.27,159.86,-1.17,0.54,1.35
269,-148.29,51.89,160.82,-0.93,0.52,1.34
270,-133.95,56.96,169.04,-0.85,0.58,1.38
271,-118.79,60.15,176.09,-0.73,0.60,1.31
272,-109.22,66.41,180.03,-0.65,0.66,1.25
273,-102.24,70.79,183.19,-0.55,0.70,1.17
274,-99.42,75.44,186.84,-0.44,0.77,1.11
275,-96.47,82.08,187.21,-0.35,0.81,1.09
276,-93.80,88.95,184.96,-0.25,0.82,1.10
277,-90.64,90.73,181.34,-0.21,0.82,1.16
278,-86.24,91.07,178.29,-0.16,0.82,1.25
279,-79.40,99.28,176.20,-0.08,0.81,1.32
280,-70.14,106.89,174.99,-0.03,0.78,1.41
281,-59.25,109.76,172.31,0.00,0.77,1.47
282,-49.16,107.83,175.24,-0.05,0.78,1.48
283,-46.03,122.58,165.86,0.19,0.88,1.61
284,-29.19,120.82,169.36,0.20,0.78,1.44
285,-17.85,115.33,172.55,0.20,0.79,1.44
286,-9.22,116.02,173.27,0.21,0.82,1.46
287,0.96,112.98,174.27,0.25,0.82,1.40
288,7.77,108.37,174.99,0.29,0.85,1.40
289,15.08,100.92,175.82,0.31,0.84,1.39
290,23.47,92.21,175.74,0.36,0.82,1.40
291,32.67,82.47,175.73,0.43,0.80,1.39
292,43.54,72.98,173.19,0.49,0.78,1.40
293,54.52,64.27,169.97,0.55,0.76,1.35
294,65.45,57.57,166.56,0.62,0.72,1.31
295,75.28,48.55,162.76,0.69,0.70,1.29
296,85.73,40.66,157.24,0.76,0.71,1.25
297,95.18,37.83,150.63,0.85,0.69,1.19
298,104.06,34.61,143.47,0.89,0.69,1.12
299,116.58,29.15,134.84,0.91,0.67,1.07
300,122.11,18.56,128.32,0.90,0.70,1.07
301,131.62,11.77,119.89,0.95,0.66,0.97
302,138.60,4.99,115.02,0.96,0.66,0.90
303,146.81,-0.56,108.40,0.98,0.64,0.82
304,152.31,-5.92,101.56,1.00,0.64,0.73
305,156.49,-10.95,97.98,1.00,0.62,0.65
306,160.73,-17.73,93.66,1.00,0.62,0.60
307,167.37,-23.34,85.89,1.05,0.59,0.55
308,172.55,-27.19,78.99,1.07,0.61,0.49
309,175.48,-32.23,70.78,1.09,0.59,0.37
310,178.27,-37.08,66.09,1.10,0.63,0.32
311,183.24,-35.34,53.45,1.16,0.58,0.29
312,186.79,-50.17,47.63,1.05,0.59,0.20
313,185.13,-49.91,47.76,1.03,0.64,0.11
314,186.90,-54.47,36.72,1.04,0.58,0.05
315,188.47,-67.24,33.36,0.99,0.60,0.07
316,190.63,-78.03,28.79,0.97,0.57,-0.04
317,193.91,-86.27,23.95,0.96,0.55,-0.14
318,196.95,-97.77,20.60,0.95,0.54,-0.16
319,196.12,-103.66,15.15,0.96,0.56,-0.21
320,192.70,-107.60,12.03,0.98,0.52,-0.32
321,194.82,-112.02,7.33,0.99,0.49,-0.40
322,195.47,-116.69,-1.69,1.02,0.49,-0.44
323,193.73,-116.69,-9.71,1.03,0.48,-0.54
324,189.60,-117.86,-15.28,1.01,0.49,-0.61
325,184.32,-119.10,-21.02,0.98,0.50,-0.72
326,178.14,-129.16,-26.87,0.95,0.51,-0.81
327,170.29,-132.96,-35.05,0.95,0.52,-0.87
328,159.56,-132.87,-41.31,0.96,0.52,-0.94
329,147.37,-134.84,-53.34,0.93,0.52,-1.00
330,138.60,-145.98,-58.31,0.88,0.53,-1.02
331,127.91,-149.47,-66.44,0.90,0.52,-1.09
332,117.48,-162.64,-77.40,0.80,0.52,-1.08
333,103.63,-162.47,-86.29,0.82,0.53,-1.17
334,90.14,-159.04,-96.12,0.83,0.52,-1.22
335,76.81,-152.98,-105.56,0.80,0.52,-1.24
336,62.38,-146.52,-113.39,0.74,0.51,-1.23
337,48.41,-137.60,-120.09,0.70,0.47,-1.24
338,35.74,-128.70,-124.49,0.63,0.46,-1.24
339,21.79,-127.92,-124.69,0.52,0.49,-1.18
340,10.14,-124.31,-130.89,0.46,0.41,-1.23
341,-2.40,-122.17,-131.27,0.39,0.41,-1.22
342,-11.13,-122.02,-133.76,0.34,0.39,-1.20
343,-20.35,-123.50,-136.24,0.26,0.39,-1.19
344,-30.24,-121.63,-138.03,0.23,0.41,-1.18
345,-41.98,-116.15,-137.94,0.19,0.43,-1.20
346,-53.45,-109.59,-138.29,0.14,0.43,-1.20
347,-64.18,-107.04,-140.44,0.10,0.42,-1.15
348,-74.43,-103.10,-143.25,0.07,0.41,-1.11
349,-88.46,-67.25,-169.34,0.27,0.41,-1.20
350,-91.66,-90.92,-155.73,-0.06,0.28,-0.98
351,-103.62,-84.06,-149.53,-0.10,0.39,-0.95
352,-107.39,-81.39,-155.16,-0.15,0.36,-0.91
353,-115.94,-76.82,-155.57,-0.23,0.35,-0.88
354,-121.07,-76.00,-156.49,-0.35,0.34,-0.80
355,-127.22,-74.40,-154.15,-0.45,0.33,-0.76
356,-135.31,-70.58,-148.26,-0.56,0.34,-0.72
357,-143.25,-66.75,-137.65,-0.71,0.35,-0.67
358,-155.36,-70.95,-124.41,-0.87,0.35,-0.60
359,-167.83,-68.41,-107.16,-0.97,0.37,-0.54
360,-182.37,-72.34,-86.82,-1.08,0.41,-0.46
361,-195.25,-70.14,-69.19,-1.11,0.42,-0.42
362,-206.64,-71.24,-55.33,-1.10,0.46,-0.39
363,-220.87,-67.02,-41.31,-1.09,0.48,-0.35
364,-234.79,-62.26,-25.19,-1.11,0.49,-0.25
365,-245.54,-61.97,-13.25,-1.11,0.46,-0.07
366,-247.66,-65.42,-4.69,-1.08,0.43,0.10
367,-246.84,-66.98,-0.26,-1.01,0.41,0.23
368,-243.91,-55.92,6.84,-0.93,0.38,0.44
369,-242.76,-46.53,14.87,-0.94,0.41,0.49
370,-232.67,-35.54,20.69,-0.97,0.40,0.75
371,-223.22,-28.18,22.17,-0.95,0.41,0.82
372,-213.13,-23.44,25.85,-0.97,0.42,0.87
373,-202.75,-8.11,27.66,-0.99,0.46,0.94
374,-195.39,-10.75,38.50,-1.03,0.50,0.96
375,-191.53,-9.68,48.29,-1.09,0.56,0.98
376,-186.72,-0.44,57.53,-1.12,0.60,0.93
377,-186.26,6.03,69.73,-1.13,0.63,0.91
378,-185.27,9.74,81.48,-1.13,0.61,0.93
379,-181.79,8.35,95.08,-1.17,0.57,1.04
380,-174.06,13.45,105.25,-1.13,0.55,1.15
381,-163.77,31.02,116.34,-1.01,0.53,1.28
382,-150.81,52.23,128.43,-0.93,0.52,1.38
383,-132.73,63.18,134.82,-0.86,0.51,1.36
384,-117.11,69.85,144.09,-0.80,0.55,1.30
385,-105.10,68.90,152.81,-0.77,0.55,1.25
386,-98.46,74.44,163.45,-0.63,0.67,1.16
387,-92.37,80.67,166.63,-0.50,0.69,1.07
388,-87.74,77.15,162.63,-0.44,0.71,1.04
389,-83.91,77.50,160.06,-0.35,0.75,1.03
390,-81.37,81.30,157.45,-0.28,0.77,1.05
391,-79.65,91.48,157.59,-0.22,0.79,1.07
392,-77.13,104.63,157.11,-0.20,0.78,1.13
393,-73.59,115.53,157.28,-0.17,0.79,1.20
394,-67.63,125.18,156.11,-0.15,0.75,1.28
395,-51.30,139.01,152.73,-0.24,0.73,1.37
396,-52.00,136.72,152.63,-0.18,0.72,1.44
397,-45.24,139.01,155.92,-0.16,0.71,1.49
398,-35.63,134.12,163.37,-0.14,0.71,1.50
399,-24.85,122.93,169.44,-0.13,0.69,1.53
400,-12.61,112.79,174.44,-0.08,0.69,1.54
