,gyro_x,gyro_y,gyro_z,acce_x,acce_y,acce_z
0,74.00,19.10,14.96,0.11,-0.11,1.14
1,76.24,20.26,16.17,0.12,-0.04,1.09
2,72.03,19.53,17.68,0.13,0.00,1.06
3,70.49,9.42,13.13,0.12,-0.04,1.11
4,69.19,8.21,13.24,0.16,0.03,1.03
5,68.67,9.05,12.44,0.20,-0.01,1.05
6,69.08,18.50,13.15,0.23,-0.02,1.05
7,70.85,31.37,20.37,0.26,0.00,1.07
8,74.43,35.24,20.92,0.23,-0.04,1.09
9,76.55,32.63,17.39,0.18,-0.03,1.13
10,76.53,33.15,15.27,0.21,0.02,1.10
11,75.10,34.50,16.08,0.26,0.04,1.10
12,74.47,35.02,12.46,0.24,0.04,1.11
13,74.05,31.48,8.60,0.18,0.05,1.12
14,77.44,30.00,5.85,0.18,0.01,1.16
15,78.63,29.51,5.28,0.15,0.02,1.24
16,86.89,29.13,5.77,0.14,0.00,1.23
17,91.34,28.08,5.89,0.11,0.02,1.25
18,99.11,26.99,6.11,0.08,0.00,1.24
19,105.11,31.10,10.12,0.07,0.04,1.25
20,111.74,32.76,14.99,0.05,0.04,1.27
21,119.27,31.15,18.23,0.05,0.02,1.29
22,127.54,32.31,21.68,0.08,0.00,1.38
23,137.97,40.08,26.85,0.11,0.00,1.42
24,148.11,57.45,35.60,0.20,0.00,1.47
25,162.00,67.77,45.34,0.16,0.00,1.44
26,171.27,56.75,46.15,-0.01,0.04,1.51
27,179.31,54.06,46.56,0.08,0.10,1.51
28,187.16,49.92,48.29,0.10,0.16,1.49
29,194.18,40.05,47.56,0.11,0.20,1.47
30,199.28,21.21,40.98,0.13,0.22,1.51
31,207.51,9.04,33.71,0.19,0.23,1.52
32,218.32,4.63,30.90,0.27,0.27,1.50
33,224.63,-2.52,25.56,0.32,0.36,1.53
34,242.44,-22.24,9.71,0.23,0.29,1.48
35,250.49,-32.08,2.70,0.38,0.41,1.34
36,260.98,-31.97,-3.92,0.47,0.49,1.20
37,266.56,-32.27,-11.66,0.47,0.58,1.12
38,265.18,-38.38,-20.08,0.46,0.68,0.99
39,275.34,-37.28,-32.72,0.50,0.72,0.85
40,255.15,-30.40,-34.26,0.56,0.92,0.77
41,267.68,-8.00,-38.55,0.62,0.85,0.54
42,248.00,-34.61,-54.20,0.39,1.05,0.50
43,225.40,-39.66,-67.79,0.54,1.07,0.37
44,225.77,-38.11,-82.26,0.65,0.96,0.19
45,217.34,-10.99,-92.47,0.70,1.01,0.09
46,223.89,6.66,-98.78,0.54,0.99,-0.06
47,204.05,9.24,-111.19,0.36,1.04,-0.01
48,184.47,14.87,-112.12,0.28,1.16,-0.18
49,160.14,22.32,-114.60,0.24,1.23,-0.33
50,140.26,18.21,-120.99,0.09,1.26,-0.43
51,118.55,4.46,-133.08,-0.05,1.27,-0.44
52,59.42,24.35,-143.92,-0.07,1.37,-0.22
53,71.22,31.97,-133.47,-0.13,1.05,-0.22
54,66.61,31.56,-127.50,-0.20,1.05,-0.23
55,50.09,30.24,-130.49,-0.32,0.96,-0.16
56,37.47,23.65,-137.10,-0.42,0.85,-0.03
57,22.50,28.78,-129.30,-0.47,0.77,-0.01
58,27.28,46.21,-114.52,-0.54,0.63,0.08
59,21.77,51.94,-104.81,-0.70,0.57,0.17
60,25.37,47.54,-95.88,-0.82,0.52,0.27
61,25.21,41.82,-88.69,-0.91,0.43,0.32
62,14.58,27.80,-75.79,-1.05,0.48,0.41
63,3.25,22.34,-58.72,-1.12,0.46,0.41
64,-9.54,18.56,-39.73,-1.14,0.42,0.47
65,-17.98,12.99,-23.89,-1.13,0.37,0.54
66,-23.34,10.78,-6.67,-1.06,0.31,0.62
67,-26.81,8.29,6.41,-1.07,0.22,0.76
68,-36.63,2.38,15.56,-1.04,0.11,1.07
69,-25.94,5.95,30.53,-0.97,0.02,1.02
70,-21.65,10.35,46.67,-0.96,-0.00,1.08
71,-16.24,7.36,58.66,-0.93,-0.03,1.15
72,-13.36,4.81,70.61,-0.88,0.01,1.21
73,-4.40,0.47,82.17,-0.85,0.02,1.21
74,-3.16,2.14,95.44,-0.69,0.05,1.22
75,6.89,8.15,108.53,-0.55,0.04,1.25
76,3.42,8.03,115.69,-0.48,0.10,1.28
77,11.60,4.58,117.88,-0.36,0.05,1.22
78,15.27,15.13,125.59,-0.15,0.07,1.15
79,13.92,18.58,130.20,-0.15,0.20,1.19
80,17.48,16.23,130.06,-0.08,0.19,1.14
81,28.00,23.31,131.31,0.05,0.24,1.07
82,24.64,30.03,132.66,0.17,0.29,0.99
83,24.26,37.19,132.14,0.30,0.34,0.90
84,17.63,49.73,129.50,0.43,0.42,0.89
85,15.76,62.60,125.48,0.54,0.40,0.84
86,5.40,72.72,119.69,0.60,0.43,0.86
87,3.11,81.47,112.78,0.62,0.43,0.88
88,-5.56,88.93,106.38,0.58,0.44,0.89
89,-2.78,91.77,101.68,0.53,0.42,0.87
90,-6.11,96.32,98.26,0.47,0.47,0.87
91,-13.91,95.76,99.19,0.39,0.52,0.96
92,-14.70,94.15,101.01,0.40,0.49,0.91
93,-8.34,90.18,102.85,0.39,0.44,0.96
94,-2.00,85.57,104.87,0.41,0.45,1.00
95,10.58,79.33,107.62,0.44,0.44,0.97
96,22.38,75.89,111.07,0.52,0.48,0.90
97,18.50,69.13,109.10,0.54,0.58,0.94
98,28.14,61.94,108.72,0.61,0.61,0.85
99,27.15,56.41,106.87,0.72,0.68,0.81
100,32.72,51.57,101.11,0.81,0.70,0.76
101,30.73,50.15,94.06,0.89,0.81,0.65
102,31.76,54.40,90.21,1.02,0.88,0.61
103,25.27,42.41,74.73,0.98,0.92,0.64
104,37.11,47.98,64.69,1.04,1.00,0.64
105,35.76,50.49,54.35,1.00,1.09,0.68
106,41.51,42.66,46.53,1.06,1.04,0.63
107,54.53,47.05,36.89,1.04,1.08,0.59
108,57.11,38.64,28.18,0.98,1.16,0.58
109,48.08,23.83,11.83,0.90,1.25,0.67
110,55.95,21.54,3.33,0.92,1.24,0.56
111,55.37,18.14,-1.18,0.90,1.24,0.51
112,60.76,11.04,-9.42,0.87,1.22,0.52
113,65.07,5.62,-15.65,0.86,1.25,0.50
114,71.19,-0.70,-22.35,0.82,1.27,0.46
115,76.76,-12.76,-29.91,0.76,1.31,0.41
116,80.24,-20.90,-36.82,0.75,1.35,0.36
117,76.52,-23.88,-44.78,0.72,1.44,0.39
118,83.13,-33.94,-52.23,0.69,1.41,0.25
119,78.84,-45.97,-63.22,0.65,1.45,0.16
120,74.37,-57.02,-70.29,0.64,1.52,0.02
121,72.99,-50.18,-74.15,0.65,1.50,-0.04
122,67.73,-47.22,-83.15,0.60,1.48,0.01
123,69.05,-46.85,-93.37,0.55,1.41,0.01
124,68.46,-48.02,-101.36,0.46,1.42,-0.01
125,63.63,-50.08,-106.69,0.38,1.42,-0.06
126,59.13,-51.40,-111.92,0.29,1.40,-0.05
127,59.63,-54.56,-115.62,0.20,1.34,-0.03
128,64.27,-56.96,-116.46,0.12,1.32,-0.03
129,63.94,-63.68,-117.92,0.05,1.30,-0.01
130,69.37,-69.39,-119.37,-0.02,1.25,-0.02
131,71.94,-74.67,-118.92,-0.08,1.22,-0.04
132,75.68,-78.37,-117.11,-0.14,1.19,-0.04
133,78.99,-88.29,-118.09,-0.20,1.14,-0.09
134,79.50,-96.49,-117.63,-0.24,1.14,-0.13
135,76.79,-105.34,-118.60,-0.30,1.15,-0.19
136,73.40,-102.84,-115.82,-0.27,1.15,-0.27
137,65.47,-104.00,-118.37,-0.28,1.10,-0.28
138,60.49,-96.00,-117.04,-0.27,1.12,-0.35
139,53.95,-89.91,-118.29,-0.30,1.08,-0.38
140,49.15,-86.03,-120.05,-0.33,1.05,-0.41
141,41.42,-74.99,-120.40,-0.38,1.00,-0.42
142,36.78,-67.36,-121.83,-0.50,0.94,-0.40
143,31.82,-67.19,-121.54,-0.63,0.92,-0.43
144,22.81,-64.53,-117.89,-0.70,0.91,-0.44
145,15.31,-59.57,-112.55,-0.74,0.85,-0.40
146,10.14,-56.55,-108.18,-0.77,0.78,-0.34
147,7.22,-52.66,-103.57,-0.77,0.73,-0.31
148,0.70,-47.13,-100.70,-0.78,0.71,-0.24
149,2.40,-47.95,-102.61,-0.81,0.63,-0.22
150,-7.33,-48.60,-102.21,-0.87,0.65,-0.16
151,-12.15,-28.53,-88.95,-0.87,0.66,-0.19
152,-21.66,-21.57,-78.29,-0.99,0.63,-0.15
153,-30.79,-28.29,-74.82,-1.10,0.61,-0.09
154,-40.55,-32.40,-65.95,-1.10,0.59,-0.01
155,-44.44,-30.02,-52.92,-1.09,0.55,0.07
156,-44.76,-35.86,-42.20,-1.14,0.52,0.15
157,-50.11,-38.23,-31.97,-1.06,0.46,0.29
158,-40.90,-34.31,-20.09,-0.99,0.40,0.36
159,-42.96,-36.89,-13.19,-0.97,0.43,0.38
160,-44.84,-33.62,-7.42,-0.87,0.48,0.40
161,-48.81,-28.14,0.52,-0.80,0.50,0.37
162,-55.02,-25.79,3.65,-0.77,0.51,0.38
163,-62.72,-20.31,6.23,-0.69,0.53,0.39
164,-70.89,-9.85,10.00,-0.66,0.53,0.44
165,-79.77,-0.18,15.56,-0.66,0.51,0.48
166,-87.42,5.66,18.82,-0.69,0.47,0.56
167,-90.98,5.16,21.02,-0.73,0.45,0.71
168,-95.77,-3.22,20.96,-0.77,0.40,0.78
169,-93.86,6.95,34.75,-0.68,0.33,0.86
170,-88.58,20.52,50.75,-0.73,0.27,0.98
171,-85.11,14.99,57.45,-0.79,0.26,1.09
172,-82.96,11.16,68.18,-0.81,0.30,1.12
173,-80.43,12.67,86.34,-0.75,0.32,1.21
174,-76.53,8.66,94.72,-0.72,0.28,1.30
175,-70.64,3.68,103.15,-0.63,0.26,1.39
176,-70.00,1.73,109.37,-0.56,0.34,1.41
177,-65.42,8.41,118.96,-0.33,0.28,1.41
178,-58.85,17.30,122.61,-0.22,0.27,1.46
179,-50.78,19.60,123.44,-0.15,0.29,1.53
180,-43.88,27.07,125.92,-0.03,0.29,1.51
181,-37.48,37.79,129.22,0.02,0.28,1.56
182,-28.03,41.47,128.49,0.06,0.27,1.57
183,-22.00,48.35,131.01,0.10,0.32,1.53
184,-23.02,56.99,135.48,0.15,0.36,1.46
185,-20.67,43.88,137.44,0.11,0.42,1.43
186,-20.14,62.81,138.95,0.26,0.44,1.44
187,-9.37,67.30,138.09,0.32,0.36,1.46
188,-2.37,70.05,136.72,0.41,0.41,1.41
189,5.34,71.95,134.49,0.48,0.46,1.36
190,2.38,74.12,132.50,0.52,0.56,1.34
191,8.69,75.54,128.84,0.58,0.54,1.21
192,9.10,80.58,127.24,0.61,0.59,1.20
193,10.37,81.74,120.98,0.61,0.61,1.16
194,11.97,88.81,119.82,0.69,0.61,1.09
195,16.05,88.79,112.92,0.68,0.59,1.07
196,18.11,90.03,108.70,0.69,0.61,1.04
197,19.94,88.00,105.50,0.69,0.63,1.02
198,21.98,88.82,102.61,0.75,0.62,1.01
199,25.62,91.98,101.27,0.78,0.62,0.99
200,30.85,91.15,96.66,0.80,0.61,1.00
201,35.31,88.52,91.08,0.81,0.65,0.94
202,37.69,86.52,86.17,0.81,0.70,0.87
203,38.95,83.13,80.85,0.76,0.76,0.80
204,38.84,79.69,77.56,0.74,0.83,0.74
205,36.98,73.76,75.63,0.75,0.85,0.69
206,39.01,69.89,71.07,0.71,0.86,0.65
207,44.55,57.66,62.76,0.67,0.89,0.64
208,51.80,47.97,55.42,0.69,0.92,0.57
209,50.67,44.03,51.83,0.71,1.00,0.51
210,47.13,36.69,45.71,0.71,1.02,0.47
211,46.17,30.89,38.69,0.75,1.04,0.41
212,48.11,28.05,32.20,0.77,1.06,0.38
213,49.50,22.09,24.85,0.76,1.09,0.35
214,52.58,12.66,16.96,0.72,1.11,0.31
215,54.66,2.90,10.92,0.68,1.13,0.26
216,52.75,-5.28,4.41,0.65,1.20,0.21
217,54.21,-6.50,-0.55,0.66,1.21,0.16
218,53.95,-12.84,-4.92,0.62,1.27,0.14
219,54.27,-30.92,-15.36,0.56,1.29,0.09
220,50.50,-48.81,-27.33,0.57,1.32,0.02
221,47.91,-54.63,-36.89,0.60,1.36,0.00
222,50.89,-56.66,-45.85,0.61,1.35,-0.02
223,52.37,-56.72,-55.18,0.62,1.35,-0.06
224,51.27,-55.63,-62.67,0.61,1.35,-0.11
225,48.14,-55.10,-73.50,0.54,1.38,-0.14
226,48.84,-56.14,-82.05,0.46,1.39,-0.21
227,44.46,-59.56,-90.20,0.36,1.41,-0.23
228,41.37,-62.26,-96.38,0.28,1.43,-0.24
229,39.74,-67.24,-100.84,0.19,1.41,-0.26
230,39.63,-71.85,-104.43,0.12,1.39,-0.25
231,39.89,-74.63,-106.43,0.07,1.37,-0.24
232,40.15,-77.57,-107.24,0.00,1.35,-0.23
233,40.89,-81.73,-108.52,-0.05,1.32,-0.21
234,42.14,-85.98,-108.79,-0.11,1.29,-0.20
235,44.84,-92.49,-109.94,-0.16,1.26,-0.19
236,46.85,-97.50,-110.92,-0.18,1.23,-0.19
237,49.65,-102.50,-112.66,-0.21,1.19,-0.19
238,51.83,-106.37,-113.98,-0.24,1.17,-0.23
239,49.42,-106.11,-114.81,-0.25,1.18,-0.28
240,41.82,-103.30,-107.45,-0.28,1.29,-0.32
241,39.91,-96.31,-113.16,-0.24,1.22,-0.36
242,35.79,-91.54,-114.03,-0.31,1.13,-0.40
243,30.32,-88.73,-115.80,-0.37,1.13,-0.40
244,25.56,-87.73,-117.66,-0.42,1.09,-0.39
245,21.68,-86.09,-118.08,-0.45,1.05,-0.39
246,16.52,-80.38,-116.60,-0.47,1.02,-0.38
247,13.66,-76.72,-117.10,-0.53,0.98,-0.36
248,10.43,-72.92,-115.21,-0.57,0.94,-0.34
249,6.47,-68.31,-111.71,-0.63,0.92,-0.33
250,2.52,-67.04,-109.30,-0.69,0.90,-0.34
251,29.88,-48.61,-94.02,-0.70,0.86,-0.44
252,-9.68,-59.10,-96.84,-0.79,0.93,-0.27
253,-17.57,-66.08,-103.15,-0.81,0.82,-0.27
254,-25.60,-68.11,-98.03,-0.84,0.84,-0.25
255,-29.80,-70.05,-93.57,-0.85,0.78,-0.25
256,-31.21,-70.84,-91.94,-0.82,0.73,-0.21
257,-46.15,-56.38,-85.77,-0.78,0.75,-0.16
258,-59.16,-38.29,-74.56,-0.75,0.71,-0.12
259,-71.85,-28.17,-67.50,-0.80,0.66,-0.05
260,-79.79,-19.92,-60.29,-0.83,0.60,0.02
261,-83.79,-20.89,-57.31,-0.90,0.53,0.14
262,-87.88,-31.34,-58.95,-0.98,0.46,0.29
263,-83.69,-30.02,-47.80,-0.97,0.35,0.34
264,-90.31,-24.29,-34.66,-1.03,0.37,0.48
265,-90.98,-23.60,-23.16,-1.08,0.32,0.53
266,-93.33,-20.84,-9.54,-1.02,0.32,0.55
267,-95.34,-15.69,3.74,-0.97,0.30,0.59
268,-99.73,-19.56,8.96,-0.96,0.27,0.67
269,-101.60,-12.32,19.73,-0.83,0.23,0.73
270,-105.91,-2.21,29.91,-0.79,0.22,0.78
271,-112.90,4.24,36.53,-0.78,0.22,0.86
272,-116.50,12.12,43.92,-0.78,0.18,0.93
273,-117.95,25.01,56.21,-0.77,0.15,1.03
274,-117.25,36.27,65.97,-0.75,0.10,1.08
275,-112.96,50.15,76.21,-0.74,0.07,1.17
276,-110.89,56.64,85.63,-0.75,0.09,1.27
277,-103.40,58.14,95.95,-0.78,0.05,1.33
278,-97.31,64.18,109.16,-0.73,0.02,1.42
279,-92.24,68.90,122.99,-0.74,0.03,1.48
280,-80.93,55.86,128.53,-0.81,-0.03,1.62
281,-72.15,46.92,139.76,-0.75,-0.04,1.65
282,-62.76,42.72,151.86,-0.65,-0.03,1.63
283,-55.69,39.56,161.86,-0.57,-0.02,1.59
284,-49.15,36.46,171.69,-0.46,-0.00,1.53
285,-42.12,35.47,179.50,-0.31,0.04,1.47
286,-36.21,38.00,187.76,-0.20,0.07,1.43
287,-29.79,42.85,195.89,-0.10,0.10,1.44
288,-25.97,43.18,199.63,0.04,0.08,1.43
289,-18.60,48.06,203.86,0.17,0.12,1.38
290,-12.98,47.82,204.27,0.26,0.14,1.38
291,-10.26,48.41,204.02,0.39,0.19,1.37
292,-4.89,51.66,202.02,0.50,0.21,1.33
293,-1.40,57.04,200.56,0.64,0.25,1.31
294,-0.35,64.72,197.83,0.78,0.29,1.29
295,-0.66,68.23,190.09,0.84,0.31,1.29
296,3.79,68.96,181.31,0.87,0.33,1.28
297,12.18,70.46,174.31,0.92,0.34,1.25
298,12.20,69.59,169.22,0.91,0.44,1.26
299,18.27,66.63,162.79,0.96,0.46,1.20
300,18.47,62.34,155.86,0.96,0.52,1.20
301,24.78,55.77,148.24,0.97,0.54,1.14
302,29.44,47.24,140.53,0.97,0.58,1.10
303,34.34,41.27,134.15,0.99,0.60,1.06
304,42.05,31.79,125.63,1.00,0.60,1.03
305,51.10,21.71,116.08,1.04,0.62,0.96
306,53.68,12.70,106.29,1.04,0.69,0.88
307,63.44,-0.60,97.68,1.01,0.77,0.73
308,60.52,-0.89,97.59,1.06,0.88,0.68
309,55.25,4.76,87.74,1.05,0.91,0.57
310,22.61,-11.57,78.12,1.09,0.98,0.61
311,51.59,-6.26,67.68,1.16,0.89,0.50
312,63.56,14.21,73.69,1.23,1.06,0.51
313,68.69,5.92,51.47,1.05,1.11,0.51
314,65.11,-2.99,40.44,0.97,1.18,0.32
315,61.51,-7.71,34.84,0.92,1.24,0.23
316,54.49,-11.68,28.73,0.93,1.25,0.28
317,58.60,-20.99,17.30,0.90,1.24,0.26
318,59.44,-31.07,8.63,0.86,1.28,0.19
319,49.37,-45.57,-5.69,0.84,1.32,0.21
320,53.89,-59.74,-17.95,0.79,1.33,0.14
321,49.28,-56.14,-21.15,0.80,1.40,0.10
322,47.65,-58.35,-30.60,0.80,1.39,0.08
323,46.53,-61.33,-40.93,0.76,1.40,0.05
324,45.68,-62.34,-48.34,0.72,1.41,0.02
325,44.78,-60.46,-53.50,0.69,1.42,-0.01
326,43.98,-61.71,-59.88,0.60,1.43,-0.01
327,42.84,-67.51,-67.63,0.52,1.44,-0.02
328,39.69,-74.03,-76.34,0.46,1.44,-0.01
329,37.45,-75.79,-81.97,0.44,1.44,-0.04
330,36.90,-80.81,-89.21,0.36,1.44,-0.02
331,36.00,-86.37,-95.33,0.31,1.45,-0.03
332,31.08,-88.34,-100.38,0.27,1.47,-0.03
333,33.97,-91.73,-103.48,0.22,1.44,-0.02
334,41.51,-89.45,-102.12,0.19,1.44,-0.14
335,36.58,-86.02,-109.59,0.17,1.37,0.00
336,42.12,-83.56,-113.66,0.14,1.33,0.02
337,48.98,-81.45,-113.50,0.06,1.31,-0.00
338,50.53,-86.56,-117.74,-0.03,1.30,0.03
339,54.75,-90.98,-119.40,-0.09,1.25,0.01
340,59.01,-89.62,-117.92,-0.13,1.27,-0.00
341,62.11,-89.91,-115.62,-0.17,1.24,-0.05
342,63.73,-93.25,-118.81,-0.20,1.21,-0.06
343,64.34,-92.44,-117.30,-0.21,1.20,-0.10
344,62.99,-93.34,-117.44,-0.24,1.19,-0.13
345,61.77,-91.60,-118.14,-0.23,1.16,-0.18
346,59.21,-86.03,-117.02,-0.22,1.13,-0.20
347,58.00,-78.96,-116.31,-0.23,1.10,-0.21
348,56.26,-74.70,-117.74,-0.27,1.06,-0.23
349,53.95,-61.05,-113.25,-0.22,1.03,-0.24
350,51.19,-60.35,-117.51,-0.31,0.99,-0.27
351,46.26,-59.74,-119.11,-0.34,1.02,-0.25
352,43.65,-58.14,-120.49,-0.34,0.98,-0.27
353,40.40,-57.66,-122.14,-0.36,0.97,-0.28
354,37.94,-62.49,-126.34,-0.40,0.94,-0.26
355,30.27,-54.78,-124.29,-0.36,0.94,-0.31
356,20.78,-40.53,-120.47,-0.34,0.91,-0.28
357,14.00,-32.81,-120.89,-0.40,0.87,-0.24
358,6.06,-28.02,-122.55,-0.41,0.85,-0.24
359,-3.11,-20.38,-125.30,-0.42,0.82,-0.19
360,-9.07,-4.81,-124.95,-0.41,0.77,-0.16
361,-16.70,7.25,-121.68,-0.49,0.70,-0.11
362,-25.31,9.59,-119.13,-0.62,0.66,-0.04
363,-29.44,8.05,-118.24,-0.72,0.59,0.04
364,-36.52,11.71,-110.70,-0.79,0.57,0.09
365,-41.97,11.39,-101.08,-0.91,0.56,0.12
366,-50.15,9.22,-90.92,-0.96,0.54,0.17
367,-54.26,6.11,-83.02,-0.98,0.48,0.21
368,-58.27,5.08,-74.93,-0.96,0.44,0.27
369,-61.18,7.01,-66.64,-0.94,0.41,0.32
370,-68.49,8.75,-60.60,-0.89,0.37,0.36
371,-72.67,14.99,-52.79,-0.89,0.34,0.39
372,-80.26,19.48,-44.79,-0.94,0.35,0.43
373,-92.70,26.05,-35.97,-0.96,0.35,0.44
374,-101.50,34.31,-26.49,-0.98,0.33,0.49
375,-106.52,39.37,-17.92,-1.00,0.28,0.56
376,-112.58,42.24,-9.37,-1.03,0.20,0.68
377,-119.42,45.63,-0.32,-1.08,0.18,0.82
378,-119.57,45.15,12.73,-1.12,0.08,0.89
379,-120.24,49.86,27.51,-1.16,0.07,1.00
380,-116.26,52.12,46.90,-1.21,0.02,1.07
381,-108.58,42.72,64.58,-1.30,-0.02,1.14
382,-100.18,35.86,84.67,-1.28,-0.04,1.22
383,-92.49,33.15,106.73,-1.20,-0.06,1.30
384,-82.41,27.98,125.22,-1.08,-0.07,1.33
385,-75.63,23.82,142.50,-0.93,-0.07,1.34
386,-67.91,22.96,158.08,-0.78,-0.07,1.35
387,-63.02,21.94,169.83,-0.65,-0.07,1.39
388,-59.48,23.60,180.76,-0.50,-0.06,1.37
389,-56.06,32.92,193.98,-0.31,-0.09,1.34
390,-56.17,33.34,197.44,-0.17,-0.04,1.37
391,-49.22,37.73,198.93,-0.02,-0.02,1.35
392,-45.42,46.08,202.27,0.15,0.05,1.32
393,-44.05,53.07,202.76,0.30,0.08,1.31
394,-44.52,62.55,201.22,0.44,0.14,1.29
395,-41.91,62.24,201.34,0.54,0.18,1.25
396,-47.69,80.02,198.41,0.61,0.34,1.22
397,-44.05,95.30,191.79,0.71,0.26,1.16
398,-39.34,104.35,184.40,0.70,0.28,1.13
399,-43.48,103.28,176.11,0.65,0.36,1.14
400,-39.57,103.85,173.44,0.64,0.37,1.06
