,gyro_x,gyro_y,gyro_z,acce_x,acce_y,acce_z
0,-2.58,3.28,-0.09,-0.65,0.82,"29.28[0m
"
1,3.18,-2.90,3.24,-0.08,-0.65,0.82
2,3.16,-2.24,3.22,-0.07,-0.65,0.82
3,3.50,-1.47,3.28,-0.07,-0.65,0.83
4,3.83,-0.96,3.22,-0.07,-0.65,0.83
5,3.85,-0.66,2.92,-0.08,-0.66,0.83
6,4.31,-0.61,2.56,-0.09,-0.65,0.81
7,4.47,-2.17,1.94,-0.09,-0.65,0.82
8,4.46,-2.93,1.92,-0.10,-0.66,0.81
9,4.43,-2.12,2.09,-0.09,-0.65,0.81
10,3.92,-2.11,2.18,-0.09,-0.65,0.81
11,3.11,-2.00,2.37,-0.10,-0.65,0.80
12,2.46,-2.24,2.70,-0.10,-0.65,0.81
13,2.05,-1.76,3.31,-0.08,-0.64,0.82
14,1.89,-2.55,3.51,-0.09,-0.65,0.83
15,2.37,-1.97,3.86,-0.08,-0.67,0.84
16,2.85,-1.04,4.15,-0.07,-0.68,0.84
17,4.06,-0.72,3.89,-0.07,-0.68,0.86
18,5.98,-3.05,2.89,-0.07,-0.69,0.88
19,7.82,-3.73,1.60,-0.07,-0.69,0.88
20,9.91,-3.01,0.98,-0.07,-0.68,0.86
21,11.13,-3.18,0.37,-0.08,-0.67,0.86
22,11.54,-3.11,0.29,-0.09,-0.65,0.84
23,11.69,-2.70,0.92,-0.09,-0.65,0.83
24,11.13,-3.94,1.45,-0.09,-0.63,0.81
25,9.16,-3.04,2.92,-0.06,-0.60,0.82
26,8.70,-3.69,4.21,-0.10,-0.61,0.81
27,5.94,-1.53,6.47,-0.10,-0.61,0.81
28,7.47,-0.21,7.74,-0.08,-0.63,0.82
29,4.32,0.05,7.30,-0.07,-0.61,0.85
30,3.79,0.69,8.32,-0.05,-0.61,0.82
31,3.10,2.47,7.82,-0.05,-0.62,0.83
32,3.36,2.11,5.37,-0.06,-0.63,0.84
33,3.98,1.18,2.87,-0.05,-0.63,0.85
34,4.23,0.52,0.70,-0.06,-0.63,0.84
35,4.46,-1.10,-0.50,-0.07,-0.64,0.85
36,5.13,-1.68,-1.36,-0.08,-0.63,0.85
37,5.65,-1.10,-1.13,-0.08,-0.64,0.86
38,5.60,0.69,0.40,-0.09,-0.63,0.84
39,4.89,2.60,2.20,-0.09,-0.63,0.84
40,4.67,3.04,3.22,-0.10,-0.63,0.84
41,4.26,3.15,4.24,-0.11,-0.63,0.83
42,4.02,4.24,5.11,-0.08,-0.64,0.84
43,3.54,5.39,5.22,-0.08,-0.64,0.83
44,2.96,5.82,4.73,-0.08,-0.63,0.82
45,2.38,5.21,4.11,-0.09,-0.63,0.82
46,2.18,5.21,3.57,-0.09,-0.63,0.83
47,1.94,4.00,2.43,-0.09,-0.64,0.82
48,2.05,1.73,1.39,-0.10,-0.63,0.83
49,2.43,0.03,0.85,-0.10,-0.64,0.84
50,3.19,-1.59,0.14,-0.09,-0.63,0.85
51,4.49,-3.01,-0.72,-0.10,-0.65,0.88
52,5.89,-1.47,-0.47,-0.11,-0.66,0.89
53,6.95,0.23,-0.32,-0.12,-0.66,0.88
54,7.92,-0.02,-0.70,-0.12,-0.66,0.89
55,9.19,0.18,-0.90,-0.13,-0.66,0.88
56,10.20,0.00,-1.31,-0.14,-0.66,0.87
57,12.43,-1.89,-0.79,-0.15,-0.68,0.90
58,13.53,-1.18,0.34,-0.14,-0.68,0.87
59,14.81,0.38,1.88,-0.14,-0.67,0.86
60,15.22,1.13,2.93,-0.16,-0.67,0.87
61,16.82,-0.08,3.62,-0.19,-0.69,0.88
62,19.22,-2.72,4.95,-0.20,-0.71,0.91
63,21.44,-3.80,6.60,-0.19,-0.74,0.94
64,28.18,-0.55,9.11,-0.16,-0.76,0.93
65,32.46,3.04,10.93,-0.15,-0.75,0.97
66,38.50,3.82,10.12,-0.13,-0.83,0.94
67,45.69,-1.36,7.76,-0.17,-0.83,0.98
68,51.22,-5.24,6.00,-0.19,-0.83,0.99
69,60.92,-11.31,3.79,-0.21,-0.86,1.01
70,70.11,-15.02,3.31,-0.22,-0.87,1.03
71,80.92,-19.82,4.43,-0.27,-0.91,1.06
72,92.26,-23.51,7.82,-0.25,-0.93,1.11
73,102.21,-23.33,11.62,-0.24,-0.95,1.13
74,115.47,-26.00,16.75,-0.25,-1.00,1.16
75,127.91,-24.41,23.92,-0.25,-1.02,1.19
76,143.95,-15.33,32.12,-0.23,-1.06,1.18
77,156.35,-7.59,39.45,-0.21,-1.03,1.18
78,166.03,8.95,49.48,-0.14,-0.97,1.10
79,171.19,11.69,53.95,-0.15,-0.92,1.07
80,178.87,9.85,55.05,-0.16,-0.90,1.07
81,186.75,8.05,56.23,-0.16,-0.86,1.07
82,193.42,5.97,58.15,-0.19,-0.84,1.07
83,199.53,3.95,60.12,-0.20,-0.84,1.06
84,203.25,8.50,63.47,-0.13,-0.79,1.06
85,208.92,7.95,65.34,-0.15,-0.75,1.08
86,211.40,9.94,68.24,-0.20,-0.76,1.07
87,219.85,15.57,73.63,-0.18,-0.75,1.07
88,226.67,4.03,78.35,-0.33,-0.77,1.07
89,233.04,0.96,81.40,-0.29,-0.76,1.17
90,239.74,0.76,85.71,-0.18,-0.71,1.11
91,243.89,6.96,85.50,-0.09,-0.68,1.15
92,251.60,0.32,84.40,-0.16,-0.62,1.10
93,255.21,-4.09,80.34,-0.14,-0.59,1.05
94,256.20,-7.97,78.34,-0.16,-0.51,1.00
95,257.44,1.60,77.51,-0.10,-0.45,0.98
96,259.77,-7.21,75.73,-0.18,-0.42,1.03
97,266.41,-15.83,73.16,-0.12,-0.35,0.95
98,266.38,-9.57,75.36,-0.09,-0.33,0.93
99,263.82,-1.97,80.76,-0.11,-0.26,0.93
100,267.56,-1.86,83.76,-0.11,-0.25,0.97
101,269.69,-0.12,83.15,-0.04,-0.17,0.92
102,272.08,10.21,83.07,-0.01,-0.07,0.82
103,270.85,24.23,83.86,0.06,0.08,0.73
104,266.29,23.10,80.67,0.02,0.17,0.73
105,263.18,25.94,83.53,-0.04,0.16,0.69
106,258.61,9.47,90.29,-0.13,0.27,0.80
107,267.18,19.18,104.00,0.01,0.17,0.81
108,274.89,9.13,110.00,0.03,0.10,0.79
109,287.74,-2.34,110.31,0.07,0.08,0.80
110,289.85,4.31,114.60,0.14,0.16,0.73
111,293.62,-2.75,112.63,0.16,0.14,0.66
112,297.48,-10.75,108.27,0.21,0.23,0.74
113,286.95,-1.47,104.37,0.31,0.39,0.60
114,269.27,1.98,98.23,0.34,0.60,0.45
115,256.69,-6.12,92.02,0.30,0.63,0.54
116,243.65,-21.54,84.31,0.23,0.76,0.58
117,227.79,-24.64,73.88,0.33,0.94,0.42
118,206.95,-22.70,68.17,0.33,1.08,0.51
119,204.12,-51.71,53.39,0.18,0.91,0.66
120,196.09,-59.63,42.99,0.28,0.88,0.75
121,183.44,-39.73,37.79,0.46,0.87,0.68
122,169.53,-6.38,35.66,0.48,0.84,0.70
123,162.55,-3.28,27.16,0.32,0.75,0.76
124,159.86,-5.47,20.14,0.28,0.67,0.80
125,160.64,6.66,17.08,0.28,0.65,0.79
126,158.05,10.95,13.98,0.21,0.62,0.75
127,156.82,11.10,11.13,0.16,0.61,0.79
128,155.97,9.50,7.59,0.11,0.57,0.81
129,152.92,17.08,6.60,0.11,0.58,0.78
130,149.45,23.71,5.76,0.09,0.60,0.77
131,146.49,26.75,4.89,0.02,0.59,0.78
132,147.82,26.40,3.04,-0.01,0.57,0.81
133,146.24,30.63,2.75,-0.07,0.65,0.84
134,145.31,25.45,-0.18,-0.06,0.59,0.78
135,151.18,30.40,2.43,-0.12,0.52,0.75
136,147.82,33.30,6.73,-0.13,0.55,0.76
137,151.13,37.71,12.46,-0.13,0.54,0.72
138,142.03,37.53,14.29,-0.09,0.59,0.68
139,142.34,43.65,16.75,-0.00,0.66,0.60
140,141.76,41.50,16.98,0.01,0.69,0.53
141,142.29,39.48,16.46,0.04,0.71,0.47
142,139.42,33.05,14.58,0.08,0.78,0.43
143,139.39,24.14,12.14,0.08,0.80,0.34
144,135.33,23.73,11.65,0.17,0.86,0.27
145,131.59,11.54,6.85,0.15,0.87,0.22
146,130.06,8.20,4.52,0.31,0.96,0.09
147,126.26,2.56,-0.34,0.37,1.01,0.03
148,120.29,2.50,-4.87,0.47,1.10,-0.13
149,115.42,3.13,-10.58,0.52,1.12,-0.18
150,109.42,2.93,-18.02,0.57,1.16,-0.25
151,104.12,4.73,-25.42,0.63,1.19,-0.33
152,96.85,9.21,-34.08,0.67,1.22,-0.41
153,85.51,8.56,-41.44,0.68,1.26,-0.50
154,78.38,20.47,-49.22,0.67,1.36,-0.62
155,63.59,29.01,-56.35,0.71,1.38,-0.66
156,50.84,31.54,-64.69,0.65,1.38,-0.73
157,48.02,20.32,-75.86,0.51,1.27,-0.74
158,33.24,20.43,-80.41,0.52,1.36,-0.82
159,26.98,8.55,-87.62,0.38,1.32,-0.83
160,23.80,-1.42,-92.52,0.27,1.29,-0.85
161,12.27,-12.47,-96.14,0.19,1.32,-0.93
162,3.91,-22.69,-99.57,0.12,1.32,-0.97
163,-5.40,-28.11,-100.92,0.05,1.27,-0.94
164,-17.80,-32.38,-99.47,0.03,1.23,-0.95
165,-27.60,-37.47,-98.35,-0.06,1.20,-0.88
166,-37.98,-39.45,-95.66,-0.10,1.18,-0.84
167,-48.27,-38.90,-92.99,-0.13,1.16,-0.81
168,-60.75,-39.50,-90.63,-0.17,1.14,-0.75
169,-72.26,-37.76,-88.79,-0.16,1.07,-0.69
170,-82.09,-28.98,-88.38,-0.21,1.07,-0.63
171,-94.17,-32.64,-89.44,-0.33,1.05,-0.59
172,-104.24,-34.99,-89.13,-0.42,1.00,-0.53
173,-114.89,-50.05,-89.08,-0.55,0.92,-0.41
174,-123.56,-57.82,-85.59,-0.58,0.84,-0.32
175,-132.00,-57.08,-78.23,-0.56,0.78,-0.16
176,-137.53,-56.15,-71.74,-0.57,0.62,-0.03
177,-141.71,-55.68,-71.34,-0.59,0.51,0.13
178,-143.54,-51.82,-66.11,-0.68,0.45,0.22
179,-142.63,-38.93,-56.67,-0.71,0.44,0.25
180,-146.20,-29.13,-50.75,-0.76,0.46,0.28
181,-152.24,-23.24,-43.04,-0.85,0.43,0.39
182,-156.99,-19.89,-32.81,-0.94,0.34,0.48
183,-157.79,-23.24,-24.43,-1.00,0.27,0.56
184,-156.61,-25.92,-16.23,-1.03,0.24,0.64
185,-154.69,-26.26,-6.82,-1.04,0.17,0.77
186,-146.98,-23.88,1.10,-1.10,0.11,0.85
187,-149.85,-21.16,10.23,-1.12,0.11,0.86
188,-146.58,-22.43,21.40,-1.16,0.14,0.85
189,-144.76,-29.19,32.08,-1.25,0.10,0.93
190,-139.89,-33.50,45.02,-1.25,0.04,1.00
191,-134.40,-36.24,56.85,-1.25,0.03,1.09
192,-130.05,-39.98,68.78,-1.23,-0.04,1.10
193,-124.14,-40.79,82.23,-1.19,-0.05,1.14
194,-116.76,-45.39,92.63,-1.14,-0.06,1.19
195,-111.50,-47.21,103.10,-1.04,-0.07,1.27
196,-101.88,-46.03,114.84,-0.95,-0.10,1.26
197,-92.93,-50.34,121.47,-0.83,-0.13,1.36
198,-81.68,-51.77,126.93,-0.71,-0.14,1.34
199,-76.84,-32.95,134.67,-0.53,-0.09,1.39
200,-69.05,-29.10,137.59,-0.49,-0.10,1.46
201,-61.01,-25.56,140.61,-0.42,-0.04,1.44
202,-54.69,-20.50,145.13,-0.35,0.00,1.41
203,-47.69,-16.56,148.00,-0.30,0.01,1.42
204,-41.85,-9.54,151.39,-0.22,0.05,1.40
205,-35.68,-8.11,152.63,-0.17,0.08,1.40
206,-31.59,-6.37,152.60,-0.07,0.11,1.39
207,-27.86,1.28,154.44,0.02,0.13,1.37
208,-25.25,9.89,157.25,0.09,0.12,1.39
209,-21.10,13.71,157.77,0.14,0.10,1.43
210,-15.63,16.29,155.91,0.23,0.08,1.46
211,-10.52,23.77,153.71,0.34,0.06,1.47
212,0.75,36.55,151.28,0.43,0.05,1.45
213,1.62,38.46,145.37,0.44,0.04,1.50
214,7.92,44.46,137.44,0.52,0.04,1.48
215,11.37,46.21,132.31,0.51,0.04,1.49
216,18.79,52.98,128.85,0.54,0.02,1.44
217,21.85,55.77,123.22,0.53,0.05,1.43
218,30.40,63.85,119.05,0.55,0.06,1.42
219,35.30,62.82,113.05,0.49,0.10,1.38
220,38.34,63.74,109.65,0.44,0.19,1.29
221,40.84,60.63,108.12,0.38,0.25,1.22
222,42.32,56.50,105.82,0.37,0.28,1.18
223,43.25,51.68,104.29,0.36,0.33,1.11
224,43.51,44.93,102.82,0.36,0.35,1.10
225,44.05,43.34,102.84,0.41,0.36,1.07
226,44.61,40.03,101.18,0.45,0.37,1.07
227,45.39,32.99,97.94,0.49,0.38,1.06
228,48.29,29.36,94.84,0.57,0.41,1.03
229,50.64,26.96,90.84,0.64,0.43,1.02
230,54.82,26.23,85.54,0.72,0.46,1.01
231,52.61,26.72,80.02,0.75,0.52,0.98
232,51.44,32.32,77.33,0.75,0.59,0.96
233,54.46,33.80,73.73,0.75,0.65,0.93
234,59.76,32.78,69.56,0.75,0.65,0.94
235,61.94,24.64,63.91,0.71,0.71,0.95
236,65.15,14.56,58.90,0.70,0.80,0.88
237,69.44,2.98,53.05,0.73,0.85,0.84
238,68.32,-7.45,46.41,0.79,0.93,0.79
239,70.21,-17.42,39.56,0.88,0.95,0.79
240,75.18,-26.47,32.56,0.94,0.93,0.80
241,77.66,-33.88,23.18,1.06,0.95,0.81
242,82.14,-34.81,14.06,1.13,1.01,0.74
243,86.03,-35.21,1.89,1.24,1.06,0.68
244,86.87,-28.23,-10.47,1.34,1.11,0.65
245,86.73,-27.63,-25.21,1.32,1.15,0.59
246,86.02,-29.21,-39.86,1.30,1.18,0.57
247,88.72,-21.91,-50.69,1.27,1.24,0.43
248,91.01,-22.47,-64.09,1.19,1.26,0.38
249,91.50,-25.01,-77.24,1.13,1.25,0.34
250,93.97,-29.21,-88.21,1.03,1.25,0.27
251,95.13,-31.97,-98.41,0.96,1.24,0.22
252,95.83,-36.17,-107.53,0.86,1.23,0.15
253,96.56,-41.21,-116.23,0.75,1.23,0.07
254,94.40,-47.42,-121.91,0.63,1.25,-0.00
255,94.06,-54.55,-126.93,0.53,1.25,-0.09
256,87.24,-59.76,-130.23,0.45,1.28,-0.16
257,83.94,-67.77,-131.02,0.37,1.29,-0.27
258,79.71,-72.03,-130.20,0.33,1.29,-0.29
259,76.78,-79.16,-129.48,0.29,1.26,-0.32
260,75.01,-89.92,-130.46,0.27,1.23,-0.30
261,72.64,-95.48,-131.28,0.31,1.24,-0.32
262,68.08,-93.97,-133.45,0.39,1.27,-0.38
263,60.95,-85.47,-135.19,0.42,1.31,-0.42
264,53.91,-74.73,-139.60,0.46,1.32,-0.45
265,44.24,-65.86,-144.96,0.41,1.33,-0.44
266,35.36,-56.79,-151.19,0.35,1.30,-0.45
267,28.20,-50.40,-154.50,0.22,1.24,-0.45
268,23.45,-46.56,-155.05,0.09,1.13,-0.41
269,20.15,-46.72,-153.69,-0.06,1.02,-0.35
270,19.63,-50.78,-150.98,-0.20,0.97,-0.33
271,16.40,-59.89,-148.31,-0.32,0.95,-0.31
272,11.34,-61.24,-143.54,-0.37,1.00,-0.39
273,3.54,-56.96,-135.62,-0.44,1.02,-0.40
274,-4.72,-60.64,-130.09,-0.49,1.01,-0.35
275,-11.48,-73.11,-127.53,-0.56,0.99,-0.30
276,-17.86,-88.26,-127.34,-0.58,0.98,-0.29
277,-18.95,-88.52,-124.53,-0.52,0.97,-0.31
278,-33.04,-81.62,-122.49,-0.45,0.94,-0.29
279,-52.14,-64.17,-117.65,-0.39,0.98,-0.21
280,-64.78,-46.99,-112.73,-0.43,0.92,-0.13
281,-72.50,-35.74,-109.53,-0.49,0.78,-0.02
282,-78.24,-28.05,-104.81,-0.61,0.63,0.13
283,-81.60,-17.37,-98.35,-0.70,0.57,0.20
284,-87.25,-6.18,-90.21,-0.79,0.56,0.22
285,-95.18,5.16,-80.69,-0.87,0.58,0.25
286,-101.59,6.46,-73.28,-0.98,0.56,0.29
287,-105.88,1.66,-66.18,-1.06,0.54,0.33
288,-110.35,-12.58,-61.02,-1.09,0.51,0.43
289,-106.89,-30.98,-57.77,-1.06,0.45,0.51
290,-114.34,-32.43,-52.67,-0.93,0.41,0.60
291,-112.73,-21.28,-44.17,-0.92,0.36,0.64
292,-113.47,-7.36,-34.93,-0.92,0.37,0.71
293,-113.54,0.17,-28.43,-0.90,0.26,0.76
294,-111.88,9.21,-19.95,-0.95,0.17,0.84
295,-114.15,13.33,-10.55,-1.10,0.18,0.93
296,-107.48,14.40,0.75,-1.11,0.09,0.96
297,-111.62,5.68,10.98,-1.19,0.10,1.02
298,-110.98,4.26,25.50,-1.20,0.06,1.07
299,-105.59,-0.55,37.77,-1.21,0.01,1.18
300,-102.40,-9.10,50.92,-1.19,0.02,1.23
301,-92.84,-5.68,62.11,-1.02,-0.00,1.27
302,-95.71,-11.47,70.56,-1.00,0.03,1.32
303,-90.37,-8.38,78.99,-0.88,-0.03,1.39
304,-84.75,-3.89,88.05,-0.78,-0.04,1.41
305,-78.37,0.08,93.18,-0.73,-0.08,1.44
306,-73.19,2.55,99.94,-0.68,-0.06,1.45
307,-68.93,7.21,106.78,-0.66,-0.06,1.47
308,-62.78,11.22,112.29,-0.55,-0.06,1.49
309,-58.72,17.27,118.47,-0.49,-0.05,1.46
310,-53.15,29.77,123.97,-0.39,-0.05,1.45
311,-47.19,35.68,125.74,-0.35,-0.06,1.45
312,-42.20,44.02,129.48,-0.39,-0.06,1.47
313,-34.67,40.40,134.21,-0.45,-0.07,1.39
314,-32.99,36.56,138.11,-0.45,-0.10,1.52
315,-22.29,39.34,146.03,-0.45,0.00,1.45
316,-14.90,23.76,150.14,-0.36,-0.05,1.41
317,-17.37,23.50,156.81,-0.19,-0.02,1.46
318,-15.01,39.04,165.59,0.01,0.00,1.43
319,-10.11,47.28,167.37,0.11,0.02,1.44
320,-6.76,46.61,165.05,0.15,0.02,1.45
321,1.27,52.50,163.13,0.26,0.03,1.40
322,2.11,55.10,160.15,0.34,0.05,1.39
323,4.43,60.87,156.05,0.42,0.07,1.38
324,7.82,60.63,148.31,0.43,0.12,1.35
325,8.95,59.73,142.12,0.40,0.21,1.26
326,10.06,55.57,137.08,0.34,0.26,1.20
327,11.51,46.90,132.32,0.31,0.29,1.17
328,14.90,31.25,127.36,0.30,0.27,1.19
329,18.84,18.73,123.68,0.32,0.27,1.20
330,23.39,12.17,120.66,0.41,0.28,1.16
331,26.55,10.15,117.56,0.51,0.30,1.14
332,29.37,7.04,113.63,0.57,0.33,1.15
333,33.89,3.89,107.13,0.64,0.36,1.13
334,37.66,4.17,101.97,0.68,0.36,1.07
335,43.27,2.29,94.43,0.72,0.40,1.04
336,44.23,6.98,87.62,0.71,0.44,1.08
337,49.82,5.97,83.02,0.66,0.54,0.99
338,51.53,-0.61,75.97,0.66,0.61,0.96
339,53.37,-3.24,70.63,0.67,0.70,0.88
340,53.60,-6.96,64.11,0.68,0.74,0.84
341,54.44,-12.29,58.99,0.69,0.79,0.80
342,53.71,-17.16,53.10,0.72,0.86,0.80
343,54.63,-22.87,45.69,0.77,0.87,0.75
344,55.92,-27.53,37.56,0.79,0.89,0.74
345,52.84,-35.57,28.31,0.83,0.91,0.79
346,63.69,-29.57,24.26,0.87,0.87,0.72
347,67.74,-38.53,12.02,0.89,0.89,0.78
348,65.28,-29.45,3.30,0.99,0.96,0.74
349,71.77,-26.11,-6.64,0.93,1.00,0.66
350,72.76,-27.83,-16.08,0.87,1.03,0.62
351,75.27,-22.73,-23.50,0.87,1.08,0.53
352,75.30,-25.42,-32.34,0.80,1.12,0.49
353,74.70,-28.37,-40.79,0.77,1.15,0.45
354,76.18,-35.71,-50.50,0.74,1.16,0.39
355,77.83,-35.40,-58.96,0.72,1.20,0.34
356,75.02,-40.79,-67.98,0.69,1.25,0.29
357,74.18,-44.02,-76.92,0.65,1.25,0.23
358,74.93,-46.78,-85.16,0.61,1.25,0.24
359,74.90,-46.64,-90.93,0.59,1.24,0.22
360,75.27,-46.55,-96.61,0.55,1.25,0.20
361,74.72,-46.26,-102.43,0.52,1.24,0.18
362,74.81,-45.91,-107.33,0.47,1.23,0.15
363,75.73,-45.92,-111.92,0.40,1.23,0.12
364,74.37,-45.62,-114.67,0.33,1.23,0.08
365,71.45,-44.56,-115.66,0.28,1.24,0.03
366,68.81,-45.59,-116.63,0.21,1.26,-0.03
367,61.69,-45.71,-117.39,0.17,1.27,-0.07
368,61.05,-51.80,-119.25,0.15,1.25,-0.11
369,59.27,-53.37,-120.73,0.12,1.27,-0.11
370,56.41,-51.88,-120.67,0.12,1.26,-0.13
371,53.15,-53.59,-123.19,0.12,1.24,-0.12
372,49.02,-50.52,-125.65,0.17,1.21,-0.13
373,45.54,-43.54,-128.50,0.17,1.19,-0.14
374,42.79,-37.04,-130.96,0.13,1.15,-0.15
375,39.54,-31.33,-132.44,0.06,1.13,-0.14
376,37.33,-27.07,-133.22,-0.03,1.08,-0.17
377,33.47,-24.37,-131.83,-0.14,1.08,-0.20
378,28.46,-22.92,-128.75,-0.24,1.08,-0.22
379,19.77,-24.32,-124.38,-0.31,1.07,-0.23
380,17.08,-27.63,-121.04,-0.39,1.06,-0.25
381,12.75,-33.07,-115.85,-0.47,1.05,-0.26
382,8.23,-39.62,-110.64,-0.48,1.04,-0.26
383,1.65,-43.65,-106.90,-0.43,1.02,-0.22
384,-3.97,-47.45,-105.47,-0.40,1.00,-0.18
385,-11.28,-46.61,-104.82,-0.36,0.99,-0.17
386,-18.93,-35.66,-103.02,-0.32,1.00,-0.18
387,-30.56,-22.46,-100.05,-0.34,1.00,-0.18
388,-39.21,-12.40,-97.73,-0.37,0.94,-0.15
389,-45.91,-14.03,-98.37,-0.43,0.87,-0.05
390,-53.02,-10.67,-96.08,-0.47,0.83,-0.02
391,-57.40,-6.31,-95.08,-0.50,0.77,0.06
392,-63.27,-1.94,-94.53,-0.53,0.76,0.04
393,-69.91,5.71,-91.60,-0.62,0.75,0.07
394,-74.81,4.76,-89.10,-0.74,0.70,0.13
395,-80.17,2.44,-85.36,-0.79,0.67,0.16
396,-86.21,6.47,-79.45,-0.81,0.64,0.19
397,-94.11,12.56,-71.25,-0.83,0.61,0.23
398,-98.31,11.76,-65.53,-0.87,0.52,0.36
399,-102.41,10.11,-61.33,-0.88,0.48,0.41
400,-104.85,10.23,-57.50,-0.89,0.47,0.43
