,gyro_x,gyro_y,gyro_z,acce_x,acce_y,acce_z
0,2.67,10.95,-0.46,0.29,-0.19,1.00
1,1.97,11.21,-0.18,0.28,-0.18,1.00
2,1.13,11.42,0.60,0.28,-0.18,1.00
3,1.34,11.36,0.50,0.28,-0.19,1.01
4,1.74,12.15,0.44,0.28,-0.19,1.01
5,2.14,12.72,0.27,0.28,-0.19,1.01
6,2.14,12.44,-0.12,0.27,-0.19,1.01
7,2.32,10.58,-0.40,0.26,-0.19,1.02
8,2.44,9.50,-0.70,0.26,-0.19,1.02
9,2.34,9.05,-1.10,0.26,-0.18,1.02
10,2.26,7.89,-1.10,0.26,-0.19,1.01
11,2.03,7.04,-1.45,0.26,-0.18,1.01
12,2.08,6.40,-1.05,0.25,-0.17,1.01
13,1.76,6.43,-0.87,0.26,-0.18,1.02
14,1.57,6.84,-0.67,0.26,-0.18,1.01
15,1.28,7.10,-0.61,0.26,-0.17,1.01
16,1.07,7.30,-0.40,0.26,-0.18,1.01
17,0.92,7.82,-0.02,0.26,-0.18,1.01
18,0.41,7.83,0.37,0.25,-0.18,1.02
19,0.03,7.85,0.31,0.26,-0.19,1.02
20,-0.61,6.78,0.20,0.24,-0.18,1.02
21,-0.70,5.24,0.20,0.25,-0.19,1.02
22,-0.63,3.92,-0.23,0.25,-0.19,1.04
23,-0.70,2.23,-1.13,0.26,-0.19,1.03
24,-0.12,0.85,-2.03,0.26,-0.19,1.03
25,0.96,0.90,-2.98,0.27,-0.20,1.04
26,1.89,1.30,-3.48,0.27,-0.20,1.05
27,2.60,1.19,-3.34,0.26,-0.20,1.04
28,2.90,0.75,-3.45,0.26,-0.20,1.03
29,3.10,1.37,-2.85,0.25,-0.20,1.03
30,3.56,2.18,-2.60,0.25,-0.21,1.03
31,4.08,2.35,-2.92,0.25,-0.21,1.04
32,4.50,1.60,-3.73,0.25,-0.21,1.03
33,5.74,1.73,-5.24,0.25,-0.24,1.04
34,7.77,2.15,-8.06,0.25,-0.25,1.05
35,10.02,3.48,-9.85,0.23,-0.26,1.05
36,12.82,-1.31,-11.62,0.17,-0.28,1.07
37,16.40,-7.56,-13.13,0.12,-0.30,1.08
38,18.37,-8.08,-12.38,0.12,-0.31,1.09
39,21.73,-9.40,-12.23,0.09,-0.33,1.09
40,25.22,-11.22,-11.04,0.06,-0.35,1.12
41,27.33,-14.47,-9.05,0.03,-0.35,1.13
42,29.91,-15.80,-5.56,0.03,-0.38,1.17
43,32.87,-15.34,3.94,0.01,-0.33,1.33
44,36.92,-11.42,7.47,0.03,-0.38,1.20
45,39.24,-4.27,13.53,0.07,-0.40,1.21
46,42.92,5.60,20.81,0.09,-0.43,1.22
47,46.09,12.60,27.33,0.06,-0.45,1.26
48,50.58,18.11,33.77,0.05,-0.47,1.29
49,55.48,22.55,39.65,0.03,-0.50,1.32
50,60.87,24.26,44.03,-0.01,-0.52,1.34
51,68.15,23.25,48.53,-0.02,-0.54,1.39
52,76.43,22.76,52.52,-0.02,-0.59,1.42
53,85.36,23.71,57.71,-0.01,-0.61,1.43
54,95.10,25.42,61.92,0.01,-0.62,1.46
55,102.63,29.40,65.97,0.02,-0.64,1.48
56,111.18,32.63,69.79,0.01,-0.66,1.49
57,119.39,34.98,74.18,-0.03,-0.69,1.49
58,127.44,33.36,78.96,-0.06,-0.68,1.50
59,137.50,25.68,81.44,-0.09,-0.70,1.49
60,148.41,15.69,83.01,-0.09,-0.69,1.47
61,158.70,3.56,84.18,-0.09,-0.68,1.47
62,168.18,-7.10,84.15,-0.08,-0.64,1.40
63,174.08,-15.39,84.87,-0.04,-0.59,1.35
64,178.61,-23.21,86.08,0.01,-0.56,1.31
65,182.55,-30.76,85.86,0.05,-0.52,1.29
66,187.73,-38.11,85.83,0.10,-0.51,1.30
67,195.83,-44.15,83.27,0.16,-0.50,1.28
68,203.48,-50.12,79.89,0.20,-0.46,1.29
69,210.96,-54.27,78.60,0.25,-0.41,1.23
70,215.39,-43.65,81.65,0.36,-0.34,1.21
71,219.53,-46.03,80.09,0.37,-0.31,1.19
72,224.95,-34.03,78.81,0.45,-0.27,1.19
73,230.43,-30.64,77.27,0.49,-0.24,1.13
74,231.97,-24.17,77.79,0.53,-0.17,1.09
75,232.69,-19.31,77.22,0.53,-0.13,1.04
76,232.58,-15.27,74.90,0.55,-0.08,1.01
77,233.65,-15.63,70.67,0.55,-0.08,1.01
78,235.24,-15.86,65.45,0.54,-0.05,0.98
79,240.34,-24.08,62.03,0.49,-0.07,1.00
80,245.04,-31.95,57.42,0.48,-0.03,0.99
81,249.30,-42.38,52.64,0.44,-0.01,0.98
82,252.79,-54.70,49.24,0.44,0.03,0.94
83,258.84,-67.86,44.34,0.46,0.03,0.89
84,264.90,-74.53,39.45,0.51,0.07,0.85
85,268.14,-74.75,35.10,0.56,0.12,0.79
86,268.43,-73.25,33.95,0.60,0.17,0.74
87,275.18,-66.29,33.85,0.66,0.20,0.67
88,274.90,-59.77,32.43,0.70,0.24,0.63
89,274.18,-53.50,30.60,0.72,0.28,0.57
90,274.46,-50.00,27.88,0.73,0.31,0.52
91,275.68,-47.60,25.11,0.74,0.31,0.50
92,276.75,-44.17,21.63,0.76,0.33,0.45
93,278.82,-42.29,17.98,0.76,0.34,0.43
94,281.94,-44.08,12.82,0.76,0.35,0.38
95,283.71,-43.44,7.82,0.77,0.37,0.32
96,283.77,-43.10,5.13,0.77,0.39,0.28
97,283.63,-46.47,1.69,0.75,0.42,0.23
98,282.63,-50.85,-2.41,0.76,0.43,0.18
99,283.69,-55.28,-6.61,0.78,0.42,0.12
100,286.67,-56.47,-9.36,0.82,0.43,0.10
101,290.81,-58.24,-15.44,0.84,0.42,0.05
102,291.18,-55.68,-20.89,0.89,0.46,-0.01
103,289.73,-52.14,-24.35,0.90,0.49,-0.07
104,290.64,-53.56,-31.62,0.91,0.49,-0.14
105,283.22,-57.07,-30.20,0.97,0.56,-0.04
106,287.01,-56.52,-42.67,0.98,0.51,-0.28
107,283.51,-55.22,-53.05,0.98,0.55,-0.28
108,278.61,-58.55,-63.10,0.96,0.58,-0.39
109,276.41,-61.97,-70.56,0.98,0.61,-0.49
110,267.76,-59.92,-82.82,0.98,0.67,-0.54
111,256.37,-47.71,-86.70,1.01,0.70,-0.61
112,268.92,-76.73,-122.23,0.81,0.58,-0.62
113,240.14,-68.73,-114.12,0.77,1.02,-0.23
114,228.84,-53.33,-127.97,0.96,0.81,-0.91
115,215.25,-45.02,-136.93,0.84,0.77,-0.89
116,199.33,-55.19,-143.36,0.90,0.74,-0.96
117,188.89,-55.57,-149.44,0.84,0.79,-0.97
118,167.04,-52.38,-161.28,0.76,0.80,-0.99
119,147.56,-56.02,-164.20,0.74,0.84,-0.98
120,131.82,-61.88,-172.84,0.70,0.83,-0.99
121,110.23,-51.21,-177.18,0.71,0.88,-1.16
122,90.63,-51.53,-182.70,0.62,0.85,-1.13
123,77.73,-50.92,-187.56,0.57,0.81,-1.23
124,56.84,-48.60,-190.58,0.51,0.79,-1.21
125,33.74,-52.31,-187.22,0.44,0.80,-1.08
126,27.57,-52.00,-193.57,0.35,0.69,-1.19
127,9.74,-53.34,-192.79,0.33,0.67,-1.11
128,-3.51,-56.98,-192.00,0.26,0.66,-1.05
129,-15.89,-60.64,-191.85,0.21,0.63,-1.02
130,-26.76,-60.41,-192.11,0.18,0.62,-0.98
131,-38.93,-56.50,-187.15,0.30,0.71,-1.06
132,-48.21,-50.50,-191.11,0.12,0.59,-0.90
133,-59.65,-42.41,-189.42,0.05,0.62,-0.87
134,-70.06,-37.15,-188.32,-0.02,0.63,-0.85
135,-81.01,-35.25,-187.22,-0.11,0.62,-0.80
136,-91.47,-33.33,-185.04,-0.19,0.61,-0.76
137,-101.73,-32.31,-181.33,-0.28,0.59,-0.70
138,-108.72,-32.35,-176.89,-0.35,0.56,-0.64
139,-117.13,-32.47,-169.56,-0.44,0.57,-0.57
140,-123.28,-36.85,-164.34,-0.52,0.55,-0.50
141,-128.37,-41.01,-158.23,-0.58,0.54,-0.44
142,-134.66,-43.85,-148.90,-0.66,0.54,-0.38
143,-139.68,-44.03,-138.38,-0.72,0.50,-0.38
144,-144.37,-52.99,-125.28,-0.85,0.47,-0.21
145,-152.21,-57.68,-107.02,-0.89,0.56,-0.04
146,-158.37,-57.45,-96.90,-0.89,0.48,-0.12
147,-166.90,-58.60,-80.03,-0.89,0.50,-0.06
148,-169.94,-59.48,-71.10,-0.88,0.47,0.03
149,-167.30,-57.07,-65.82,-0.88,0.41,0.14
150,-163.45,-50.61,-61.94,-0.90,0.37,0.22
151,-163.83,-55.11,-50.75,-1.04,0.45,0.43
152,-164.58,-58.20,-47.89,-1.11,0.36,0.37
153,-167.50,-68.29,-29.89,-1.17,0.40,0.48
154,-167.95,-71.69,-13.85,-1.19,0.41,0.52
155,-166.70,-73.25,2.63,-1.19,0.39,0.57
156,-166.58,-76.14,16.38,-1.17,0.41,0.61
157,-165.56,-76.99,30.58,-1.13,0.41,0.68
158,-162.58,-73.98,44.85,-1.06,0.41,0.79
159,-157.56,-69.44,54.38,-1.01,0.39,0.85
160,-152.20,-63.25,58.70,-0.98,0.37,0.87
161,-149.07,-56.29,64.00,-0.93,0.40,0.95
162,-141.98,-49.59,68.17,-0.92,0.42,1.00
163,-138.35,-44.47,75.54,-0.92,0.47,1.04
164,-134.52,-40.49,83.54,-0.92,0.48,1.07
165,-132.50,-35.02,93.34,-0.92,0.48,1.12
166,-126.96,-29.59,100.55,-0.93,0.47,1.20
167,-119.07,-28.17,109.51,-0.93,0.45,1.24
168,-113.13,-23.57,120.12,-0.91,0.46,1.29
169,-103.53,-19.18,131.92,-0.85,0.46,1.30
170,-93.51,-18.63,140.53,-0.83,0.47,1.34
171,-84.06,-21.40,147.92,-0.75,0.48,1.39
172,-74.58,-23.30,153.69,-0.65,0.47,1.39
173,-61.68,-24.72,156.26,-0.52,0.50,1.44
174,-54.63,-12.47,157.88,-0.37,0.53,1.44
175,-43.62,-0.40,158.52,-0.30,0.56,1.41
176,-38.95,9.13,160.61,-0.22,0.59,1.23
177,-30.96,1.56,162.20,-0.19,0.68,1.30
178,-26.66,13.88,165.25,-0.07,0.65,1.23
179,-22.78,23.94,165.73,-0.06,0.67,1.25
180,-20.24,25.05,162.53,0.01,0.68,1.31
181,-13.95,20.81,160.27,0.07,0.64,1.34
182,-6.67,25.53,157.89,0.20,0.60,1.34
183,1.83,34.73,153.28,0.28,0.60,1.41
184,9.50,45.76,147.92,0.32,0.58,1.39
185,17.10,52.05,142.87,0.31,0.59,1.39
186,23.56,57.19,139.44,0.30,0.61,1.36
187,27.89,63.45,138.00,0.32,0.63,1.33
188,31.89,66.09,138.72,0.30,0.64,1.32
189,36.52,66.56,137.31,0.33,0.62,1.32
190,42.35,67.33,136.67,0.37,0.61,1.31
191,47.88,66.98,134.15,0.39,0.60,1.30
192,53.24,68.18,133.04,0.45,0.62,1.29
193,58.35,67.97,130.00,0.48,0.59,1.25
194,62.02,66.95,124.41,0.49,0.59,1.22
195,65.30,62.35,118.99,0.48,0.61,1.19
196,69.02,59.28,114.27,0.51,0.65,1.12
197,71.16,56.82,110.44,0.53,0.68,1.04
198,70.55,56.90,108.58,0.54,0.71,1.00
199,71.73,55.33,106.20,0.54,0.70,0.97
200,76.72,55.80,103.71,0.56,0.65,0.98
201,84.18,55.91,98.37,0.57,0.61,0.99
202,90.85,57.85,98.26,0.60,0.60,0.96
203,94.98,55.25,94.15,0.59,0.62,0.94
204,96.99,50.00,93.97,0.60,0.65,0.91
205,98.18,43.25,92.52,0.61,0.65,0.87
206,101.01,37.13,91.45,0.63,0.65,0.83
207,103.91,32.81,89.66,0.66,0.67,0.79
208,104.81,29.94,89.91,0.69,0.70,0.74
209,106.23,26.67,89.13,0.72,0.72,0.71
210,111.27,22.70,86.15,0.75,0.71,0.65
211,115.25,14.73,79.63,0.75,0.73,0.62
212,119.05,6.29,73.15,0.75,0.76,0.56
213,120.79,2.99,70.96,0.77,0.80,0.48
214,122.67,-5.10,66.20,0.77,0.81,0.44
215,125.02,-9.83,61.97,0.81,0.82,0.37
216,127.33,-13.56,55.74,0.83,0.82,0.35
217,129.71,-17.82,48.50,0.84,0.81,0.31
218,132.60,-22.24,40.90,0.87,0.80,0.24
219,134.52,-23.92,33.36,0.89,0.81,0.20
220,135.02,-22.46,26.75,0.93,0.83,0.14
221,134.23,-21.68,19.37,0.92,0.86,0.09
222,134.61,-22.06,10.50,0.89,0.86,0.05
223,135.71,-30.05,3.15,0.84,0.85,0.03
224,134.12,-32.37,-2.00,0.83,0.87,-0.02
225,132.17,-37.19,-6.96,0.81,0.88,-0.05
226,132.82,-45.65,-12.81,0.81,0.86,-0.09
227,134.24,-52.06,-20.05,0.81,0.84,-0.11
228,133.31,-56.18,-25.65,0.80,0.84,-0.17
229,133.01,-62.49,-29.92,0.76,0.84,-0.21
230,133.86,-68.75,-34.96,0.75,0.84,-0.26
231,134.44,-76.32,-38.98,0.74,0.84,-0.32
232,133.69,-83.62,-45.36,0.73,0.85,-0.37
233,130.70,-94.78,-51.47,0.73,0.85,-0.45
234,126.98,-98.38,-53.33,0.77,0.86,-0.53
235,125.50,-104.64,-60.50,0.75,0.86,-0.58
236,122.58,-113.51,-68.99,0.74,0.88,-0.66
237,122.05,-117.89,-82.82,0.74,0.85,-0.71
238,115.65,-117.21,-88.84,0.77,0.90,-0.81
239,106.85,-115.39,-95.08,0.75,0.90,-0.84
240,100.21,-111.95,-103.95,0.68,0.89,-0.91
241,89.01,-112.43,-109.80,0.61,0.92,-0.91
242,79.21,-108.98,-116.87,0.53,0.93,-1.01
243,64.66,-109.71,-118.79,0.44,0.95,-0.97
244,53.16,-110.23,-120.87,0.36,0.95,-1.00
245,41.59,-109.51,-122.79,0.34,0.92,-1.09
246,28.75,-113.18,-122.66,0.33,0.89,-1.11
247,20.52,-109.31,-124.90,0.23,0.88,-1.05
248,9.89,-104.75,-123.42,0.19,0.87,-1.04
249,0.75,-101.19,-121.68,0.14,0.86,-1.03
250,-7.98,-98.27,-119.54,0.10,0.86,-1.01
251,-16.50,-94.23,-117.01,0.07,0.86,-0.99
252,-25.54,-89.71,-114.24,0.05,0.86,-0.97
253,-34.11,-85.33,-112.34,0.02,0.83,-0.95
254,-42.32,-78.56,-108.89,0.01,0.85,-0.93
255,-48.38,-76.37,-107.95,-0.04,0.82,-0.87
256,-44.87,-81.65,-104.96,-0.09,0.81,-0.84
257,-62.93,-71.42,-105.08,-0.07,0.80,-0.86
258,-70.53,-70.15,-101.56,-0.11,0.82,-0.75
259,-74.55,-65.34,-99.97,-0.15,0.78,-0.72
260,-82.37,-60.14,-96.11,-0.17,0.79,-0.68
261,-88.09,-55.68,-95.13,-0.19,0.77,-0.64
262,-92.96,-51.57,-96.98,-0.20,0.75,-0.61
263,-96.67,-46.06,-95.01,-0.21,0.74,-0.54
264,-100.05,-40.98,-97.40,-0.25,0.75,-0.48
265,-104.38,-36.66,-98.00,-0.32,0.72,-0.42
266,-109.66,-32.52,-95.28,-0.38,0.71,-0.35
267,-114.11,-30.60,-91.01,-0.47,0.69,-0.28
268,-117.16,-31.18,-85.22,-0.53,0.65,-0.21
269,-117.66,-34.79,-80.03,-0.63,0.62,-0.15
270,-117.40,-38.56,-74.63,-0.72,0.60,-0.10
271,-118.79,-41.66,-64.18,-0.79,0.61,-0.07
272,-121.71,-45.31,-52.84,-0.84,0.64,-0.04
273,-127.22,-45.53,-40.29,-0.87,0.67,-0.03
274,-134.09,-45.30,-28.93,-0.89,0.67,-0.01
275,-141.76,-45.30,-16.63,-0.90,0.65,0.06
276,-147.68,-45.65,-7.71,-0.89,0.62,0.13
277,-147.27,-46.47,-1.39,-0.88,0.57,0.21
278,-145.56,-45.68,4.44,-0.87,0.53,0.32
279,-143.60,-43.57,11.16,-0.87,0.50,0.38
280,-142.35,-41.88,16.90,-0.88,0.49,0.44
281,-142.08,-35.56,25.08,-0.87,0.51,0.45
282,-143.36,-30.11,35.92,-0.88,0.54,0.47
283,-142.53,-31.57,43.36,-0.91,0.53,0.53
284,-141.68,-32.72,50.38,-0.91,0.52,0.57
285,-142.37,-29.24,60.17,-0.88,0.54,0.58
286,-142.29,-24.93,72.82,-0.87,0.51,0.63
287,-143.04,-23.88,85.69,-0.85,0.50,0.70
288,-141.91,-18.11,94.32,-0.79,0.47,0.74
289,-141.79,-21.11,105.50,-0.75,0.46,0.79
290,-143.74,-12.05,113.24,-0.67,0.52,0.94
291,-139.02,-18.78,119.18,-0.64,0.43,0.95
292,-132.17,-20.12,119.19,-0.51,0.47,1.04
293,-128.40,-11.36,122.32,-0.42,0.47,1.10
294,-118.92,-4.20,124.21,-0.38,0.46,1.16
295,-111.60,1.85,124.61,-0.35,0.48,1.22
296,-105.48,8.85,124.56,-0.31,0.46,1.28
297,-99.02,11.33,125.97,-0.30,0.50,1.37
298,-91.10,13.36,127.76,-0.28,0.48,1.41
299,-82.08,18.69,130.69,-0.23,0.48,1.44
300,-74.35,21.77,131.91,-0.20,0.48,1.48
301,-64.12,28.47,134.47,-0.15,0.49,1.53
302,-52.14,27.39,133.86,-0.13,0.46,1.54
303,-41.13,28.67,133.37,-0.06,0.48,1.55
304,-33.05,31.94,132.84,0.03,0.52,1.52
305,-25.21,38.34,131.53,0.10,0.53,1.48
306,-17.57,44.41,129.85,0.15,0.54,1.45
307,-9.76,51.34,127.92,0.20,0.55,1.41
308,-2.29,58.44,126.12,0.25,0.57,1.39
309,3.40,66.32,123.98,0.30,0.59,1.36
310,8.09,69.22,119.91,0.32,0.59,1.35
311,12.69,73.50,116.99,0.35,0.59,1.33
312,18.96,75.97,114.32,0.36,0.58,1.33
313,24.87,77.85,112.35,0.38,0.59,1.33
314,30.40,78.50,110.76,0.40,0.58,1.33
315,35.88,78.79,108.14,0.44,0.59,1.30
316,40.72,80.84,106.24,0.46,0.58,1.28
317,44.40,84.60,104.84,0.49,0.61,1.26
318,47.74,86.50,104.03,0.52,0.62,1.25
319,52.38,86.05,102.73,0.52,0.59,1.26
320,57.07,84.24,101.05,0.53,0.60,1.27
321,62.95,78.46,96.44,0.55,0.56,1.27
322,69.80,71.02,93.69,0.58,0.56,1.26
323,73.69,67.16,90.58,0.62,0.56,1.21
324,78.34,65.59,86.92,0.65,0.56,1.18
325,85.69,61.82,83.57,0.68,0.55,1.14
326,93.04,59.63,77.94,0.73,0.57,1.07
327,97.44,61.50,72.76,0.77,0.61,1.00
328,101.07,62.66,67.57,0.76,0.63,0.94
329,104.82,59.88,62.67,0.75,0.65,0.88
330,106.85,58.43,59.04,0.74,0.68,0.84
331,108.52,57.80,54.73,0.72,0.70,0.80
332,110.76,53.77,53.08,0.70,0.70,0.75
333,114.53,45.25,49.40,0.66,0.70,0.71
334,116.75,37.50,48.20,0.67,0.73,0.67
335,120.66,31.91,45.37,0.67,0.72,0.62
336,124.32,26.12,42.99,0.69,0.76,0.58
337,127.68,20.12,40.98,0.71,0.78,0.53
338,129.77,16.43,35.98,0.73,0.81,0.49
339,132.79,11.37,31.59,0.73,0.81,0.47
340,136.11,4.43,26.61,0.74,0.82,0.41
341,138.81,-4.32,20.29,0.73,0.82,0.37
342,141.40,-15.01,14.12,0.75,0.84,0.30
343,142.52,-20.84,8.73,0.77,0.86,0.22
344,144.89,-25.50,1.83,0.79,0.86,0.17
345,145.22,-27.79,-4.82,0.81,0.89,0.12
346,145.39,-29.59,-11.94,0.82,0.90,0.05
347,144.47,-33.85,-19.16,0.79,0.91,-0.02
348,143.07,-37.47,-26.43,0.79,0.93,-0.07
349,143.39,-39.98,-33.30,0.77,0.93,-0.12
350,143.36,-44.15,-40.02,0.75,0.92,-0.18
351,142.40,-48.08,-45.79,0.72,0.92,-0.24
352,141.10,-55.88,-50.87,0.69,0.91,-0.32
353,138.44,-60.40,-55.92,0.68,0.93,-0.39
354,135.11,-63.37,-60.09,0.66,0.92,-0.44
355,132.53,-69.71,-62.40,0.62,0.92,-0.52
356,130.15,-78.41,-66.41,0.59,0.93,-0.58
357,125.34,-87.89,-70.92,0.58,0.93,-0.63
358,120.96,-95.74,-74.18,0.56,0.94,-0.71
359,115.44,-100.96,-77.42,0.55,0.95,-0.78
360,108.63,-109.73,-80.55,0.52,0.97,-0.83
361,100.15,-112.75,-83.73,0.54,0.99,-0.90
362,90.61,-113.01,-88.03,0.53,1.01,-0.95
363,80.21,-111.85,-91.51,0.52,1.03,-0.99
364,70.09,-116.32,-96.87,0.48,1.02,-1.01
365,58.67,-112.93,-99.83,0.46,1.03,-1.03
366,46.40,-107.30,-103.02,0.42,1.01,-1.04
367,35.85,-102.76,-106.93,0.38,0.99,-1.03
368,25.22,-97.51,-109.97,0.34,0.99,-1.02
369,14.87,-91.98,-112.61,0.30,0.96,-1.02
370,5.05,-86.26,-114.49,0.25,0.95,-1.01
371,-2.40,-82.49,-117.37,0.19,0.92,-0.98
372,-10.05,-78.76,-118.44,0.14,0.90,-0.96
373,-17.91,-73.27,-118.06,0.08,0.89,-0.95
374,-24.79,-68.84,-117.24,0.03,0.87,-0.94
375,-30.38,-65.19,-116.70,-0.04,0.86,-0.90
376,-36.66,-63.92,-115.47,-0.11,0.86,-0.90
377,-42.02,-64.64,-113.80,-0.17,0.86,-0.87
378,-49.50,-66.00,-109.24,-0.20,0.87,-0.84
379,-57.76,-66.89,-103.60,-0.22,0.86,-0.83
380,-66.56,-68.61,-100.70,-0.23,0.83,-0.81
381,-72.21,-68.84,-98.12,-0.23,0.83,-0.75
382,-80.31,-63.53,-93.74,-0.18,0.81,-0.72
383,-87.80,-56.41,-93.33,-0.17,0.78,-0.65
384,-95.28,-47.30,-94.78,-0.15,0.75,-0.60
385,-103.80,-35.91,-96.00,-0.14,0.74,-0.53
386,-110.27,-21.18,-96.00,-0.16,0.72,-0.49
387,-115.18,-12.81,-98.69,-0.26,0.67,-0.43
388,-118.29,-11.31,-99.92,-0.37,0.66,-0.35
389,-121.44,-11.28,-99.79,-0.50,0.64,-0.28
390,-127.22,-12.60,-91.88,-0.61,0.65,-0.23
391,-130.85,-20.15,-82.53,-0.71,0.62,-0.17
392,-133.53,-30.05,-72.60,-0.79,0.60,-0.09
393,-135.16,-38.11,-62.03,-0.81,0.57,-0.02
394,-136.96,-43.77,-48.35,-0.81,0.56,0.02
395,-137.66,-50.27,-39.05,-0.78,0.54,0.06
396,-139.50,-48.12,-31.79,-0.73,0.54,0.13
397,-141.39,-42.05,-27.18,-0.72,0.53,0.18
398,-144.14,-35.47,-23.48,-0.72,0.54,0.21
399,-147.05,-30.17,-21.53,-0.74,0.54,0.27
400,-152.17,-23.07,-17.62,-0.75,0.55,0.29
