,gyro_x,gyro_y,gyro_z,acce_x,acce_y,acce_z
0,49.47,22.08,0.39,-0.37,1.17,"28.81[0m
"
1,106.96,62.76,17.82,0.22,-0.42,1.32
2,135.25,78.27,21.63,0.30,-0.47,1.25
3,140.24,70.87,16.50,0.16,-0.41,1.39
4,140.17,46.06,4.63,0.02,-0.40,1.27
5,142.96,33.07,-4.64,-0.01,-0.36,1.30
6,146.56,18.95,-6.09,0.07,-0.33,1.25
7,146.53,7.44,-14.14,0.04,-0.30,1.23
8,158.44,0.82,-16.15,0.07,-0.31,1.19
9,147.21,-7.54,-18.43,0.07,-0.24,1.18
10,145.65,-9.95,-20.84,0.10,-0.20,1.16
11,146.58,-10.18,-21.89,0.10,-0.18,1.11
12,142.23,-4.60,-21.25,0.10,-0.12,1.10
13,142.46,4.79,-15.86,0.12,-0.12,1.11
14,140.32,10.79,-11.56,0.14,-0.09,1.11
15,139.47,14.47,-8.64,0.12,-0.07,1.08
16,137.95,14.27,-7.66,0.10,-0.03,1.06
17,135.56,11.86,-8.18,0.10,-0.00,1.02
18,131.66,10.18,-8.98,0.11,0.03,1.01
19,129.31,4.63,-12.92,0.11,0.01,1.01
20,126.29,-4.90,-18.82,0.09,0.03,1.04
21,125.19,-8.64,-22.43,0.12,0.06,1.03
22,127.11,-4.53,-21.77,0.16,0.06,1.00
23,137.65,3.74,-15.94,0.20,0.06,1.03
24,138.43,-8.70,-17.83,0.18,0.03,1.12
25,142.15,-21.40,-31.97,0.14,0.02,1.22
26,151.80,-24.90,-34.27,0.16,0.02,1.25
27,156.49,12.44,-19.21,0.28,0.07,1.25
28,159.40,39.62,-3.02,0.35,0.07,1.32
29,184.15,65.42,4.93,0.37,-0.07,1.31
30,189.83,70.52,3.89,0.25,-0.01,1.38
31,200.15,74.85,3.54,0.24,0.03,1.28
32,209.68,85.37,9.63,0.25,0.08,1.19
33,215.24,95.24,15.18,0.25,0.10,1.24
34,235.42,87.45,8.96,0.20,0.02,1.37
35,249.27,90.79,11.11,0.25,0.12,1.30
36,257.33,85.18,8.64,0.18,0.15,1.22
37,263.69,84.66,10.47,0.21,0.19,1.16
38,270.61,81.19,7.97,0.23,0.18,1.16
39,283.27,83.53,8.89,0.23,0.19,1.12
40,296.67,75.73,8.87,0.17,0.22,1.04
41,307.79,59.73,0.20,0.08,0.29,0.99
42,310.82,38.38,-8.70,0.08,0.38,0.86
43,320.41,37.19,-12.82,0.12,0.34,0.73
44,331.48,10.70,-18.43,-0.01,0.38,0.69
45,336.81,-22.02,-34.89,0.05,0.38,0.54
46,328.14,-52.23,-53.37,0.11,0.49,0.45
47,329.65,-62.47,-65.86,0.23,0.50,0.33
48,334.49,-82.75,-83.25,0.18,0.55,0.26
49,327.69,-106.21,-109.97,0.17,0.61,0.11
50,311.98,-123.86,-147.37,0.17,0.73,-0.12
51,290.15,-137.68,-177.21,0.20,0.89,-0.30
52,266.40,-140.69,-199.91,0.14,1.12,-0.56
53,231.47,-118.21,-188.17,0.12,1.39,-0.68
54,185.13,-62.38,-181.97,0.09,1.39,-0.72
55,120.69,0.34,-154.78,-0.09,1.35,-0.70
56,124.35,5.82,-133.89,-0.23,1.35,-0.67
57,105.94,16.17,-133.22,-0.32,1.48,-0.71
58,86.64,51.27,-94.50,-0.03,1.54,-0.64
59,57.95,12.03,-129.86,-0.45,1.40,-0.61
60,49.16,20.34,-132.43,-0.43,1.24,-0.52
61,3.94,21.51,-134.92,-0.32,1.25,-0.07
62,3.10,18.14,-147.18,-0.37,0.93,-0.23
63,-8.99,31.25,-140.87,-0.47,0.93,-0.12
64,-25.69,40.69,-129.34,-0.62,0.83,0.03
65,-37.01,32.70,-123.28,-0.99,0.80,0.21
66,-36.23,34.72,-102.37,-0.98,0.65,0.27
67,-48.47,37.54,-75.25,-0.96,0.56,0.40
68,-41.51,37.95,-50.50,-1.16,0.59,0.50
69,-60.29,15.11,-31.11,-1.23,0.57,0.63
70,-58.06,17.48,-11.27,-1.08,0.39,0.65
71,-68.73,5.02,1.45,-1.06,0.41,0.73
72,-76.21,-3.37,10.29,-0.99,0.37,0.86
73,-67.04,1.66,21.05,-0.91,0.25,0.89
74,-66.66,3.57,31.44,-0.89,0.25,1.13
75,-66.53,26.29,52.49,-0.77,0.28,1.23
76,-73.30,10.21,53.89,-0.91,0.08,1.47
77,-45.76,27.95,72.40,-0.78,0.12,1.50
78,-48.87,24.98,84.38,-0.81,0.08,1.58
79,-31.71,31.10,99.05,-0.76,0.17,1.62
80,-32.23,15.44,101.53,-0.79,0.13,1.63
81,-11.80,15.30,108.05,-0.62,0.14,1.47
82,1.19,31.91,127.82,-0.44,0.24,1.36
83,-21.24,17.24,129.45,-0.50,0.33,1.46
84,-5.22,20.96,131.08,-0.35,0.20,1.31
85,2.03,25.94,137.94,-0.26,0.27,1.30
86,11.74,31.59,140.08,-0.16,0.24,1.09
87,13.28,39.63,138.84,-0.10,0.33,1.04
88,15.15,51.91,141.71,-0.03,0.38,0.98
89,20.92,58.34,141.05,0.05,0.36,0.91
90,14.98,69.27,138.60,0.16,0.43,0.90
91,14.29,75.89,136.12,0.20,0.44,0.89
92,9.77,82.32,134.06,0.26,0.46,0.85
93,1.40,87.07,130.89,0.25,0.46,0.87
94,-0.84,90.47,129.50,0.24,0.44,0.89
95,-3.82,89.88,128.24,0.18,0.47,0.97
96,-2.82,91.39,132.63,0.16,0.44,0.96
97,3.82,90.24,140.90,0.15,0.45,1.01
98,14.50,78.66,143.07,0.15,0.44,1.04
99,20.99,67.11,144.27,0.24,0.52,1.06
100,30.95,59.71,145.05,0.38,0.53,1.01
101,41.10,58.99,145.33,0.50,0.57,0.97
102,37.40,54.60,142.02,0.62,0.68,0.97
103,47.08,52.78,137.97,0.73,0.72,0.86
104,50.93,53.56,129.80,0.79,0.79,0.84
105,53.89,50.72,122.17,0.84,0.84,0.80
106,56.37,46.53,112.85,0.89,0.88,0.75
107,63.33,41.10,102.55,0.91,0.92,0.70
108,62.05,39.95,91.83,0.94,1.04,0.68
109,64.35,36.55,81.73,0.93,1.04,0.60
110,71.57,38.67,73.13,0.99,1.05,0.54
111,73.33,41.98,64.49,0.99,1.11,0.54
112,77.59,37.69,50.85,0.96,1.12,0.50
113,82.56,36.03,41.15,0.94,1.16,0.43
114,83.39,33.37,32.55,0.88,1.19,0.40
115,86.17,34.41,27.21,0.86,1.21,0.33
116,89.01,27.59,18.00,0.80,1.20,0.34
117,91.40,14.21,5.51,0.73,1.19,0.35
118,94.53,7.60,-0.53,0.71,1.21,0.24
119,95.91,3.98,-3.83,0.70,1.25,0.21
120,101.25,-3.07,-10.17,0.66,1.21,0.19
121,103.71,-9.31,-16.47,0.63,1.20,0.16
122,101.39,-17.92,-22.95,0.58,1.21,0.10
123,103.69,-17.15,-19.73,0.60,1.27,-0.05
124,102.76,-23.77,-27.77,0.52,1.26,-0.10
125,96.17,-42.72,-40.67,0.44,1.29,-0.12
126,93.85,-41.73,-43.60,0.46,1.30,-0.19
127,95.86,-49.47,-50.76,0.37,1.27,-0.22
128,94.69,-56.78,-58.35,0.34,1.28,-0.29
129,91.86,-61.50,-63.73,0.32,1.30,-0.33
130,92.15,-69.53,-71.39,0.27,1.28,-0.36
131,88.50,-73.97,-77.30,0.23,1.32,-0.42
132,84.18,-75.92,-79.92,0.21,1.32,-0.47
133,77.07,-78.47,-84.55,0.15,1.31,-0.49
134,71.01,-80.32,-84.58,0.09,1.32,-0.51
135,71.50,-82.93,-86.00,0.09,1.30,-0.51
136,74.67,-85.62,-90.76,0.05,1.23,-0.54
137,73.37,-86.90,-92.52,0.00,1.24,-0.57
138,70.69,-92.55,-97.22,-0.06,1.22,-0.60
139,60.64,-98.09,-102.32,-0.08,1.21,-0.60
140,58.23,-97.66,-101.77,-0.08,1.19,-0.67
141,49.05,-99.34,-104.06,-0.11,1.22,-0.64
142,52.09,-94.29,-103.76,-0.13,1.17,-0.76
143,50.84,-95.57,-108.05,-0.12,1.08,-0.75
144,38.82,-91.33,-112.92,-0.18,1.07,-0.81
145,30.96,-84.46,-112.61,-0.24,1.13,-0.81
146,18.08,-82.85,-113.08,-0.32,1.11,-0.82
147,5.42,-80.32,-115.16,-0.38,1.08,-0.79
148,0.41,-75.77,-114.93,-0.43,1.00,-0.75
149,-5.01,-72.38,-114.67,-0.45,0.94,-0.64
150,-19.88,-73.86,-117.07,-0.47,0.82,-0.45
151,-8.49,-73.86,-117.50,-0.50,0.75,-0.50
152,-17.28,-76.96,-116.41,-0.63,0.78,-0.44
153,-20.17,-85.48,-121.44,-0.69,0.70,-0.33
154,-21.63,-75.85,-113.04,-0.65,0.70,-0.36
155,-20.92,-64.55,-102.79,-0.75,0.68,-0.31
156,-33.33,-61.04,-96.58,-0.82,0.75,-0.21
157,-32.14,-55.04,-87.76,-0.83,0.67,-0.21
158,-38.63,-58.43,-81.07,-0.89,0.63,-0.11
159,-38.85,-58.72,-77.08,-0.91,0.64,-0.02
160,-42.82,-64.78,-72.67,-0.95,0.60,0.01
161,-46.06,-71.50,-66.67,-0.95,0.55,0.15
162,-51.86,-67.19,-59.91,-0.92,0.55,0.23
163,-55.18,-66.95,-51.45,-0.92,0.50,0.28
164,-63.22,-61.13,-42.70,-0.91,0.53,0.32
165,-72.64,-46.61,-26.31,-0.88,0.60,0.37
166,-76.46,-37.07,-17.92,-0.86,0.51,0.44
167,-83.57,-26.69,-7.40,-0.86,0.49,0.50
168,-93.80,-20.24,1.31,-0.89,0.50,0.57
169,-105.83,-13.92,13.74,-0.87,0.51,0.60
170,-108.55,-12.18,17.30,-0.90,0.38,0.79
171,-100.06,-8.26,20.66,-0.84,0.27,0.88
172,-98.23,-1.57,30.31,-0.82,0.31,0.96
173,-97.36,8.64,40.35,-0.80,0.29,1.00
174,-93.07,17.08,51.42,-0.77,0.27,1.09
175,-86.02,19.02,58.21,-0.77,0.25,1.19
176,-80.37,19.33,66.17,-0.75,0.27,1.23
177,-80.63,21.59,76.93,-0.71,0.34,1.24
178,-79.77,21.76,84.27,-0.64,0.35,1.26
179,-76.52,22.35,89.71,-0.54,0.36,1.27
180,-73.22,31.08,97.08,-0.44,0.36,1.27
181,-73.60,34.50,101.45,-0.42,0.39,1.35
182,-75.33,36.55,109.74,-0.35,0.39,1.46
183,-64.50,39.16,112.23,-0.30,0.30,1.48
184,-55.73,45.22,118.37,-0.21,0.29,1.51
185,-46.79,52.15,123.08,-0.17,0.27,1.55
186,-35.28,52.79,126.56,-0.14,0.28,1.56
187,-30.73,51.28,126.31,-0.18,0.34,1.46
188,-21.10,58.23,132.89,0.01,0.33,1.47
189,-17.04,64.87,137.22,0.13,0.40,1.45
190,-12.21,71.74,137.13,0.23,0.40,1.41
191,-9.48,78.72,137.13,0.29,0.46,1.35
192,-11.24,85.13,137.18,0.34,0.52,1.29
193,-10.15,91.45,135.86,0.40,0.54,1.21
194,-7.94,96.47,133.98,0.46,0.53,1.15
195,-8.61,105.53,134.67,0.49,0.59,1.15
196,-3.60,111.15,134.61,0.55,0.56,1.14
197,3.28,108.67,130.17,0.56,0.54,1.18
198,11.48,106.58,126.46,0.58,0.57,1.14
199,15.88,102.41,124.96,0.60,0.61,1.09
200,21.92,99.66,124.15,0.65,0.65,1.08
201,25.86,99.31,124.38,0.70,0.67,1.03
202,27.80,94.61,120.03,0.73,0.71,0.99
203,32.81,88.53,112.61,0.77,0.72,0.94
204,35.92,90.20,111.11,0.82,0.76,0.84
205,38.67,91.37,111.88,0.82,0.84,0.77
206,37.71,83.77,102.63,0.79,0.87,0.73
207,43.94,69.15,96.78,0.79,0.86,0.65
208,48.02,60.61,87.42,0.78,0.92,0.67
209,47.34,51.68,80.84,0.77,0.98,0.60
210,50.47,44.40,75.16,0.76,1.00,0.52
211,51.92,37.51,68.93,0.76,1.01,0.49
212,55.42,33.37,64.21,0.77,1.05,0.43
213,59.71,27.68,56.82,0.77,1.07,0.38
214,56.52,22.29,51.51,0.78,1.11,0.31
215,55.88,17.89,43.28,0.78,1.13,0.26
216,55.07,8.56,33.76,0.73,1.15,0.23
217,55.57,5.44,26.55,0.72,1.21,0.17
218,55.98,-1.21,21.30,0.66,1.27,0.10
219,57.28,-7.71,16.75,0.62,1.29,0.05
220,56.18,-17.98,11.18,0.58,1.32,0.01
221,54.02,-29.34,4.41,0.57,1.34,0.00
222,54.06,-40.49,-3.71,0.57,1.37,-0.04
223,53.31,-44.52,-10.40,0.63,1.39,-0.09
224,51.73,-43.10,-17.11,0.66,1.41,-0.14
225,50.24,-44.17,-26.09,0.64,1.39,-0.20
226,52.79,-50.75,-35.94,0.58,1.41,-0.23
227,43.95,-51.51,-44.90,0.55,1.44,-0.23
228,48.60,-56.55,-52.72,0.48,1.41,-0.32
229,45.34,-61.25,-58.60,0.42,1.46,-0.34
230,42.29,-66.31,-66.27,0.36,1.44,-0.34
231,41.57,-68.70,-72.14,0.32,1.41,-0.36
232,40.78,-73.82,-78.76,0.23,1.39,-0.34
233,42.40,-79.50,-84.58,0.17,1.36,-0.34
234,43.73,-85.45,-89.30,0.12,1.36,-0.36
235,44.37,-88.58,-91.89,0.07,1.36,-0.40
236,46.89,-92.69,-94.32,0.02,1.33,-0.40
237,46.84,-99.04,-97.04,-0.06,1.33,-0.43
238,45.25,-102.11,-97.97,-0.09,1.32,-0.45
239,48.98,-103.53,-99.98,-0.13,1.31,-0.59
240,37.25,-96.78,-97.79,-0.10,1.28,-0.53
241,33.11,-101.25,-103.39,-0.16,1.23,-0.52
242,34.90,-102.18,-108.66,-0.09,1.17,-0.49
243,38.06,-93.88,-115.08,-0.08,1.12,-0.50
244,34.35,-85.51,-119.30,-0.14,1.14,-0.51
245,27.18,-78.12,-122.44,-0.20,1.13,-0.52
246,23.68,-74.09,-127.53,-0.29,1.06,-0.51
247,21.02,-71.53,-129.57,-0.40,1.03,-0.50
248,17.02,-70.38,-129.92,-0.51,0.98,-0.47
249,14.61,-70.61,-127.82,-0.58,0.92,-0.43
250,14.58,-73.04,-123.22,-0.66,0.86,-0.37
251,13.60,-76.73,-118.70,-0.71,0.81,-0.33
252,11.04,-83.89,-115.33,-0.82,0.86,-0.32
253,10.56,-77.50,-108.00,-0.68,0.82,-0.32
254,8.75,-77.13,-106.35,-0.67,0.78,-0.34
255,6.20,-78.92,-105.60,-0.62,0.77,-0.32
256,-0.63,-73.19,-106.23,-0.57,0.79,-0.38
257,-13.22,-57.76,-102.34,-0.58,0.80,-0.36
258,-24.29,-49.16,-102.20,-0.62,0.78,-0.33
259,-32.67,-40.84,-101.59,-0.63,0.74,-0.31
260,-42.38,-32.55,-99.94,-0.67,0.72,-0.26
261,-52.81,-31.77,-104.81,-0.84,0.71,-0.18
262,-65.21,-24.58,-95.60,-0.78,0.71,-0.10
263,-64.38,-19.50,-93.19,-0.81,0.59,-0.04
264,-71.28,-21.97,-85.11,-0.91,0.57,0.07
265,-78.64,-22.98,-77.04,-0.95,0.51,0.22
266,-77.16,-25.47,-67.95,-1.00,0.45,0.27
267,-79.74,-26.84,-55.42,-1.01,0.44,0.32
268,-80.63,-26.67,-45.42,-0.98,0.42,0.35
269,-82.38,-21.18,-31.60,-0.92,0.42,0.37
270,-88.20,-11.16,-20.52,-0.88,0.40,0.42
271,-95.74,-7.47,-9.08,-0.90,0.40,0.48
272,-96.70,-9.53,-4.23,-0.92,0.32,0.56
273,-98.35,-5.74,2.15,-0.87,0.33,0.66
274,-98.87,2.35,12.72,-0.85,0.32,0.66
275,-104.61,11.85,23.44,-0.85,0.32,0.66
276,-112.37,8.61,28.93,-0.92,0.32,0.76
277,-115.13,9.69,38.90,-0.83,0.32,0.79
278,-116.44,15.01,49.77,-0.78,0.31,0.83
279,-119.69,22.69,64.76,-0.79,0.28,0.93
280,-118.53,23.02,76.92,-0.82,0.21,1.08
281,-112.52,20.29,89.65,-0.81,0.19,1.18
282,-107.24,12.18,99.91,-0.80,0.19,1.27
283,-98.20,8.02,110.37,-0.69,0.16,1.33
284,-88.21,7.40,121.07,-0.53,0.18,1.39
285,-77.79,14.29,131.69,-0.34,0.17,1.40
286,-69.13,19.02,135.95,-0.24,0.18,1.48
287,-58.12,23.08,138.78,-0.14,0.20,1.50
288,-48.85,25.56,139.65,-0.13,0.21,1.53
289,-41.83,27.71,142.23,-0.09,0.26,1.53
290,-34.90,31.05,144.87,-0.04,0.27,1.52
291,-29.47,38.11,149.53,0.04,0.30,1.50
292,-28.81,41.54,151.66,0.07,0.35,1.50
293,-20.24,48.87,153.33,0.21,0.33,1.44
294,-14.06,55.40,152.82,0.24,0.40,1.38
295,-12.06,62.35,153.33,0.29,0.43,1.31
296,-10.69,67.08,152.99,0.32,0.45,1.28
297,-11.42,70.52,153.92,0.35,0.46,1.25
298,1.57,74.93,149.63,0.41,0.32,1.18
299,-0.05,76.93,150.82,0.39,0.40,1.19
300,4.27,78.32,150.31,0.44,0.44,1.19
301,7.74,78.21,149.91,0.46,0.51,1.13
302,7.39,76.95,149.63,0.51,0.54,1.12
303,10.05,77.25,148.02,0.60,0.53,1.09
304,14.72,78.15,146.37,0.67,0.54,1.06
305,19.62,78.27,143.50,0.71,0.56,1.03
306,23.37,76.26,139.88,0.75,0.61,0.98
307,29.63,73.22,136.35,0.78,0.65,0.91
308,26.79,79.48,135.57,0.84,0.73,0.85
309,23.76,79.15,130.27,0.84,0.75,0.86
310,22.02,72.09,123.10,0.84,0.76,0.82
311,29.36,64.60,112.67,0.85,0.75,0.79
312,28.46,58.15,105.34,0.83,0.83,0.70
313,24.69,52.98,96.93,0.83,0.88,0.67
314,23.44,51.79,95.04,0.83,0.94,0.62
315,24.49,40.84,82.81,0.77,0.95,0.62
316,31.68,29.74,74.26,0.75,0.97,0.54
317,34.69,21.69,68.63,0.73,1.02,0.50
318,34.99,15.31,63.39,0.73,1.04,0.45
319,35.59,7.51,56.50,0.76,1.06,0.44
320,36.26,1.68,50.44,0.77,1.10,0.40
321,41.48,-3.98,43.77,0.75,1.08,0.31
322,41.18,-15.15,34.60,0.72,1.15,0.36
323,39.79,-22.70,28.73,0.74,1.20,0.27
324,35.71,-23.28,26.93,0.76,1.26,0.17
325,28.40,-30.38,20.52,0.73,1.28,0.15
326,25.48,-33.10,12.09,0.77,1.28,0.10
327,29.10,-30.99,1.62,0.78,1.27,0.03
328,31.94,-34.34,-5.40,0.74,1.34,0.02
329,33.40,-39.82,-15.71,0.70,1.38,-0.01
330,32.44,-44.44,-25.39,0.69,1.40,-0.06
331,29.39,-43.28,-31.79,0.67,1.44,-0.11
332,22.17,-47.10,-38.99,0.60,1.45,-0.12
333,18.00,-55.28,-48.37,0.57,1.46,-0.11
334,14.18,-54.67,-54.67,0.57,1.44,-0.11
335,13.74,-52.89,-62.11,0.54,1.39,-0.12
336,13.31,-55.25,-70.93,0.48,1.38,-0.10
337,15.37,-59.65,-81.21,0.42,1.35,-0.09
338,14.49,-60.56,-88.96,0.37,1.37,-0.11
339,12.46,-59.54,-93.36,0.31,1.37,-0.12
340,11.86,-63.24,-98.58,0.20,1.36,-0.12
341,9.33,-64.43,-100.15,0.12,1.38,-0.14
342,7.97,-72.60,-105.77,-0.01,1.34,-0.13
343,-1.34,-73.05,-98.78,0.04,1.46,-0.20
344,-0.35,-62.73,-100.43,-0.08,1.30,-0.06
345,14.00,-74.61,-105.56,-0.16,1.21,-0.01
346,15.31,-77.37,-105.69,-0.19,1.19,-0.05
347,15.60,-78.40,-103.50,-0.22,1.21,-0.05
348,18.63,-80.05,-102.92,-0.26,1.19,-0.06
349,21.98,-78.82,-100.63,-0.30,1.22,-0.00
350,19.94,-82.31,-101.36,-0.28,1.15,-0.02
351,20.21,-80.75,-102.79,-0.26,1.13,0.01
352,23.02,-77.59,-103.30,-0.28,1.09,0.00
353,23.71,-74.89,-104.38,-0.29,1.08,0.00
354,23.04,-70.15,-104.29,-0.31,1.07,0.01
355,22.84,-66.53,-103.86,-0.35,1.06,-0.02
356,23.18,-62.02,-101.92,-0.36,1.06,-0.04
357,18.61,-67.47,-110.92,-0.57,1.09,-0.01
358,17.18,-59.89,-102.75,-0.39,1.07,-0.06
359,13.34,-60.76,-103.13,-0.42,1.04,-0.08
360,12.99,-58.12,-101.80,-0.43,1.01,-0.11
361,5.19,-57.25,-102.95,-0.46,1.04,-0.03
362,5.54,-52.85,-103.80,-0.43,0.90,-0.07
363,3.13,-44.98,-99.89,-0.42,0.93,-0.04
364,0.29,-39.82,-100.43,-0.41,0.89,-0.04
365,-2.03,-35.45,-103.05,-0.42,0.85,-0.05
366,-6.75,-27.57,-100.95,-0.43,0.84,-0.05
367,-14.00,-19.08,-98.29,-0.45,0.83,-0.05
368,-18.12,-13.76,-97.92,-0.52,0.79,-0.03
369,-20.75,-20.03,-100.70,-0.60,0.74,0.02
370,-23.11,-29.65,-109.21,-0.66,0.71,0.06
371,-36.93,-16.06,-101.22,-0.63,0.71,0.00
372,-52.38,0.32,-86.29,-0.65,0.72,0.07
373,-59.25,2.09,-80.95,-0.75,0.64,0.12
374,-64.47,-0.21,-76.46,-0.82,0.59,0.17
375,-70.60,-2.23,-68.38,-0.87,0.57,0.23
376,-81.88,-3.02,-59.88,-0.84,0.48,0.29
377,-88.47,0.49,-47.83,-0.84,0.46,0.36
378,-89.66,-2.72,-41.63,-0.84,0.36,0.52
379,-89.77,-2.55,-33.40,-0.83,0.32,0.65
380,-84.17,2.49,-21.39,-0.81,0.30,0.68
381,-85.69,3.18,-12.15,-0.85,0.33,0.75
382,-85.28,4.11,-1.36,-0.83,0.32,0.76
383,-84.18,4.00,7.45,-0.85,0.31,0.79
384,-82.61,4.63,16.84,-0.85,0.33,0.77
385,-84.67,6.21,28.46,-0.83,0.36,0.77
386,-88.26,8.37,38.44,-0.78,0.39,0.81
387,-90.98,12.35,48.20,-0.72,0.39,0.78
388,-92.99,7.47,50.53,-0.70,0.31,0.81
389,-91.94,5.39,58.23,-0.66,0.37,0.85
390,-97.77,3.57,64.18,-0.62,0.37,0.89
391,-98.98,17.88,79.31,-0.51,0.39,0.89
392,-94.15,27.76,92.61,-0.50,0.34,0.92
393,-98.18,22.67,95.34,-0.47,0.31,1.01
394,-94.03,29.30,106.60,-0.37,0.32,1.01
395,-92.52,26.15,112.02,-0.35,0.28,1.09
396,-85.39,23.28,116.21,-0.26,0.27,1.15
397,-76.93,26.34,121.08,-0.16,0.27,1.23
398,-69.53,25.50,123.24,-0.10,0.27,1.26
399,-57.30,32.03,130.24,0.03,0.30,1.26
400,-55.02,28.56,130.53,0.02,0.40,1.24
