,gyro_x,gyro_y,gyro_z,acce_x,acce_y,acce_z
0,27.25,9.76,6.29,0.07,-0.60,0.92
1,27.95,9.15,6.02,0.07,-0.59,0.90
2,29.95,8.64,5.02,0.09,-0.57,0.89
3,28.49,5.02,2.40,0.08,-0.55,0.88
4,28.27,3.24,0.21,0.09,-0.53,0.88
5,27.21,1.22,-2.79,0.10,-0.52,0.86
6,26.98,-1.59,-5.57,0.10,-0.51,0.86
7,25.18,-3.24,-8.79,0.10,-0.50,0.86
8,24.20,-4.56,-10.60,0.11,-0.49,0.85
9,22.00,-3.18,-12.38,0.12,-0.48,0.86
10,21.30,-3.16,-14.00,0.11,-0.48,0.85
11,20.09,-4.37,-15.13,0.09,-0.47,0.86
12,18.20,-3.57,-15.45,0.10,-0.47,0.86
13,16.96,-0.11,-14.20,0.10,-0.47,0.86
14,15.54,0.73,-13.05,0.08,-0.47,0.86
15,13.98,0.87,-12.56,0.06,-0.47,0.85
16,11.71,-4.38,-15.47,0.03,-0.49,0.91
17,8.63,3.30,-11.40,0.09,-0.47,0.88
18,6.61,1.34,-10.75,0.06,-0.48,0.85
19,4.89,4.34,-10.17,0.08,-0.50,0.85
20,5.11,4.24,-10.03,0.07,-0.51,0.85
21,2.32,3.63,-11.21,0.06,-0.52,0.86
22,0.26,1.62,-12.60,0.06,-0.53,0.87
23,-1.76,1.25,-12.72,0.05,-0.54,0.86
24,-2.69,1.33,-12.58,0.04,-0.57,0.86
25,-2.56,-2.53,-13.56,0.01,-0.61,0.92
26,-1.51,-6.82,-12.78,0.01,-0.65,0.94
27,0.08,-6.56,-11.47,0.03,-0.70,0.97
28,6.20,-5.36,-9.74,0.04,-0.76,1.00
29,6.96,-2.06,-6.20,0.04,-0.76,1.05
30,12.95,-0.49,-4.78,0.03,-0.86,1.05
31,17.71,1.02,-1.37,-0.01,-0.88,1.09
32,24.66,0.72,2.27,-0.04,-0.91,1.12
33,32.43,0.66,6.17,-0.06,-0.96,1.12
34,40.29,-0.06,10.29,-0.08,-1.00,1.15
35,48.93,1.48,16.44,-0.09,-1.00,1.15
36,55.62,3.62,22.08,-0.12,-1.02,1.14
37,63.18,8.93,28.43,-0.11,-1.04,1.14
38,69.27,12.89,34.76,-0.10,-1.01,1.17
39,76.56,9.34,38.55,-0.16,-1.04,1.20
40,85.13,7.34,43.02,-0.15,-1.07,1.20
41,96.14,7.28,48.26,-0.15,-1.08,1.19
42,105.91,4.85,51.47,-0.16,-1.09,1.21
43,116.43,5.97,56.34,-0.15,-1.11,1.21
44,125.40,9.89,62.60,-0.14,-1.11,1.22
45,134.85,13.37,71.98,-0.16,-1.12,1.24
46,146.95,17.71,82.72,-0.16,-1.15,1.26
47,159.01,20.32,91.85,-0.16,-1.15,1.28
48,171.76,21.79,99.82,-0.13,-1.15,1.26
49,182.20,21.51,103.02,-0.12,-1.11,1.23
50,191.31,28.26,108.49,-0.07,-1.05,1.14
51,195.77,35.69,113.51,-0.09,-1.04,1.07
52,206.08,33.89,114.29,-0.11,-1.01,1.10
53,210.63,26.35,115.57,-0.16,-0.95,1.07
54,211.82,21.71,117.68,-0.16,-0.89,1.03
55,210.96,14.40,118.49,-0.21,-0.76,1.03
56,210.34,13.79,119.33,-0.10,-0.77,0.94
57,203.56,9.18,119.07,-0.15,-0.74,0.94
58,212.37,5.66,124.24,-0.15,-0.76,0.95
59,214.23,1.31,125.24,-0.13,-0.75,0.97
60,215.89,1.42,128.29,-0.10,-0.73,0.95
61,218.11,6.17,132.27,-0.09,-0.69,0.91
62,220.23,3.65,136.14,-0.13,-0.69,0.90
63,221.65,2.90,140.40,-0.11,-0.66,0.88
64,220.47,3.59,144.02,-0.08,-0.62,0.84
65,216.79,2.66,145.86,-0.05,-0.60,0.83
66,217.27,-4.31,146.37,-0.05,-0.58,0.86
67,216.11,-1.16,147.68,0.07,-0.56,0.80
68,212.50,3.80,148.02,0.13,-0.49,0.78
69,214.52,8.43,147.97,0.18,-0.46,0.75
70,213.47,6.90,144.85,0.22,-0.45,0.75
71,212.55,4.27,145.13,0.23,-0.38,0.73
72,211.13,1.04,142.67,0.27,-0.37,0.73
73,212.14,-8.85,139.18,0.28,-0.40,0.78
74,218.56,-18.21,137.22,0.32,-0.40,0.75
75,219.54,-15.82,135.27,0.43,-0.38,0.78
76,216.79,-4.23,134.46,0.53,-0.33,0.77
77,221.10,11.94,137.65,0.56,-0.30,0.70
78,218.58,23.24,136.46,0.59,-0.22,0.73
79,219.77,21.63,131.94,0.58,-0.15,0.75
80,220.98,15.92,126.23,0.56,-0.07,0.74
81,215.60,23.44,123.02,0.64,0.03,0.70
82,211.37,26.14,118.08,0.63,0.09,0.69
83,205.73,25.74,112.43,0.65,0.18,0.64
84,208.92,23.24,106.69,0.66,0.24,0.65
85,205.54,17.66,100.41,0.65,0.26,0.70
86,199.42,12.27,93.48,0.76,0.27,0.71
87,205.63,16.82,89.30,0.77,0.34,0.61
88,205.95,27.45,87.19,0.80,0.40,0.63
89,203.88,37.65,84.43,0.83,0.51,0.55
90,201.07,33.89,77.40,0.82,0.59,0.56
91,201.66,38.50,71.53,0.85,0.64,0.58
92,197.92,42.11,63.45,0.87,0.74,0.56
93,194.32,44.32,55.54,0.91,0.84,0.42
94,190.73,44.32,45.74,0.88,0.90,0.40
95,187.60,43.22,34.69,0.90,0.93,0.35
96,186.53,40.14,24.52,0.88,1.01,0.36
97,183.33,33.86,11.95,0.88,1.05,0.33
98,182.26,26.11,0.89,0.82,1.06,0.30
99,178.92,20.40,-7.45,0.81,1.08,0.25
100,179.36,18.14,-13.54,0.81,1.11,0.21
101,172.70,19.66,-18.67,0.82,1.18,0.18
102,169.86,14.73,-26.84,0.83,1.21,0.12
103,167.11,-5.22,-40.63,0.76,1.22,0.14
104,164.82,-16.41,-51.08,0.85,1.33,-0.01
105,158.37,-11.89,-59.79,0.86,1.41,-0.09
106,152.92,-9.95,-68.31,0.85,1.47,-0.15
107,145.01,-15.27,-80.35,0.83,1.49,-0.18
108,136.34,-18.11,-92.12,0.81,1.52,-0.23
109,126.61,-20.53,-103.89,0.76,1.54,-0.29
110,114.67,-17.47,-114.44,0.74,1.52,-0.31
111,108.34,-18.55,-120.26,0.63,1.51,-0.35
112,98.69,-20.15,-126.31,0.57,1.47,-0.35
113,88.82,-16.84,-132.75,0.53,1.44,-0.35
114,78.92,-17.18,-140.17,0.44,1.42,-0.36
115,72.18,-20.87,-145.01,0.35,1.39,-0.37
116,63.22,-19.62,-149.05,0.28,1.36,-0.42
117,54.05,-13.48,-147.89,0.19,1.34,-0.44
118,44.98,-4.24,-144.89,0.11,1.29,-0.46
119,35.60,3.31,-142.26,0.05,1.28,-0.46
120,23.11,8.23,-141.28,-0.00,1.26,-0.45
121,11.45,8.72,-143.48,-0.03,1.23,-0.42
122,4.37,6.38,-147.92,-0.09,1.18,-0.39
123,-6.37,5.65,-150.58,-0.14,1.17,-0.43
124,-16.89,9.42,-151.98,-0.21,1.16,-0.45
125,-29.97,4.82,-154.52,-0.34,1.08,-0.36
126,-37.59,-20.12,-158.52,-0.51,1.03,-0.32
127,-42.64,-31.60,-155.48,-0.60,0.93,-0.32
128,-48.58,-28.96,-146.81,-0.64,0.83,-0.35
129,-57.68,-19.39,-137.50,-0.73,0.78,-0.25
130,-68.50,-17.65,-126.17,-0.79,0.71,-0.15
131,-76.52,-12.92,-113.30,-0.88,0.68,-0.12
132,-85.36,2.38,-99.27,-0.88,0.67,-0.11
133,-95.98,13.80,-88.12,-0.93,0.65,-0.07
134,-105.85,18.81,-81.88,-0.97,0.62,-0.02
135,-115.63,14.81,-77.77,-1.07,0.55,0.06
136,-120.11,4.00,-72.92,-1.16,0.45,0.17
137,-122.92,-9.42,-66.67,-1.21,0.32,0.30
138,-121.47,-21.10,-59.13,-1.20,0.23,0.40
139,-121.42,-26.49,-50.03,-1.21,0.19,0.50
140,-125.28,-16.50,-37.27,-1.18,0.18,0.48
141,-129.54,-11.69,-24.47,-1.25,0.19,0.53
142,-133.37,-13.24,-13.77,-1.32,0.17,0.55
143,-139.34,-15.83,-2.93,-1.32,0.17,0.57
144,-143.08,-15.05,8.18,-1.31,0.15,0.60
145,-146.34,-22.15,16.47,-1.31,0.09,0.71
146,-143.31,-33.16,23.10,-1.28,0.02,0.77
147,-142.29,-43.54,31.08,-1.31,-0.04,0.88
148,-151.76,-54.46,40.89,-1.28,-0.12,0.95
149,-132.24,-59.92,52.43,-1.25,-0.15,1.15
150,-132.31,-58.99,65.11,-1.15,-0.17,1.11
151,-130.66,-53.28,75.77,-1.03,-0.15,1.10
152,-125.31,-49.34,86.17,-1.04,-0.23,1.12
153,-117.51,-52.44,96.15,-1.03,-0.25,1.23
154,-110.70,-53.79,105.65,-0.98,-0.22,1.27
155,-103.16,-55.13,116.52,-0.97,-0.30,1.35
156,-92.73,-63.15,125.85,-0.91,-0.39,1.42
157,-85.36,-55.73,133.88,-0.69,-0.38,1.51
158,-81.56,-55.39,140.12,-0.55,-0.35,1.61
159,-68.92,-50.34,144.85,-0.47,-0.36,1.55
160,-61.83,-38.87,150.64,-0.38,-0.34,1.58
161,-56.44,-31.15,154.64,-0.25,-0.26,1.55
162,-50.50,-29.13,155.22,-0.20,-0.23,1.54
163,-46.29,-18.89,158.06,-0.07,-0.21,1.53
164,-40.12,-7.83,157.18,-0.00,-0.18,1.55
165,-37.51,-3.21,155.86,0.06,-0.14,1.58
166,-32.23,2.95,153.36,0.11,-0.11,1.56
167,-27.24,12.37,152.79,0.14,-0.10,1.57
168,-20.99,15.36,150.92,0.16,-0.11,1.58
169,-14.24,11.60,146.47,0.18,-0.10,1.59
170,-4.11,12.32,144.11,0.22,-0.09,1.54
171,-2.85,15.21,142.96,0.27,-0.04,1.57
172,3.01,18.29,141.37,0.35,-0.07,1.53
173,8.90,22.53,140.26,0.28,0.03,1.61
174,17.30,24.76,132.03,0.46,-0.06,1.56
175,18.35,42.63,128.14,0.56,-0.03,1.52
176,23.63,41.53,120.02,0.50,-0.02,1.52
177,30.27,42.69,114.44,0.50,0.02,1.45
178,35.16,40.73,109.37,0.48,0.10,1.40
179,41.63,35.37,102.31,0.47,0.16,1.35
180,55.68,33.68,97.82,0.45,0.24,1.31
181,47.40,23.85,89.68,0.45,0.37,1.31
182,52.26,17.10,83.07,0.48,0.37,1.21
183,56.34,13.31,78.18,0.51,0.38,1.20
184,59.57,9.36,72.61,0.54,0.40,1.20
185,65.05,4.96,67.54,0.58,0.42,1.19
186,70.11,1.60,63.07,0.61,0.45,1.18
187,75.74,-0.49,57.50,0.66,0.50,1.14
188,79.89,-1.44,50.82,0.71,0.54,1.12
189,83.36,-1.25,44.29,0.75,0.60,1.07
190,85.98,0.14,38.49,0.77,0.65,1.01
191,88.82,-1.44,31.82,0.76,0.71,0.98
192,90.24,-7.36,22.53,0.78,0.77,0.96
193,94.11,-11.04,14.40,0.80,0.79,0.89
194,99.08,-12.24,6.69,0.80,0.82,0.85
195,100.84,-15.48,-1.68,0.84,0.90,0.85
196,104.47,-17.24,-9.39,0.90,0.96,0.77
197,115.94,-8.76,-17.01,1.04,0.95,0.65
198,108.46,-14.50,-30.21,0.96,1.04,0.59
199,106.44,-4.03,-39.69,0.97,1.09,0.61
200,105.44,-8.93,-52.31,0.90,1.09,0.63
201,105.05,-12.78,-62.96,0.82,1.14,0.55
202,106.63,-17.28,-72.69,0.74,1.09,0.51
203,112.34,-20.00,-79.60,0.69,1.09,0.39
204,109.95,-23.24,-86.37,0.65,1.15,0.34
205,105.68,-32.40,-94.92,0.57,1.22,0.18
206,112.37,-37.68,-101.65,0.52,1.22,0.23
207,108.82,-39.89,-107.16,0.50,1.27,0.20
208,107.37,-41.83,-111.59,0.49,1.27,0.06
209,103.97,-48.26,-117.65,0.45,1.31,-0.00
210,98.05,-49.01,-122.40,0.46,1.34,-0.06
211,92.85,-48.90,-127.88,0.44,1.36,-0.14
212,84.34,-51.39,-131.86,0.39,1.40,-0.13
213,64.32,-47.69,-134.44,0.51,1.33,-0.14
214,75.83,-42.06,-140.81,0.49,1.33,-0.25
215,67.44,-29.51,-140.49,0.37,1.33,-0.19
216,58.78,-25.37,-143.11,0.30,1.37,-0.31
217,51.31,-24.58,-144.27,0.16,1.30,-0.32
218,45.50,-22.93,-145.79,0.07,1.24,-0.34
219,40.46,-21.97,-146.38,-0.01,1.21,-0.31
220,33.22,-25.02,-147.97,-0.12,1.16,-0.30
221,27.76,-37.62,-149.62,-0.27,1.12,-0.33
222,21.21,-42.60,-146.12,-0.34,1.14,-0.39
223,13.76,-40.99,-140.63,-0.38,1.11,-0.39
224,5.37,-44.98,-135.77,-0.44,1.11,-0.39
225,-4.49,-49.25,-133.30,-0.49,1.08,-0.31
226,-14.50,-48.81,-128.37,-0.53,1.06,-0.33
227,-25.59,-42.72,-121.30,-0.58,1.01,-0.29
228,-35.54,-35.65,-112.60,-0.60,0.96,-0.25
229,-44.32,-35.73,-106.41,-0.64,0.91,-0.18
230,-53.07,-35.60,-100.72,-0.63,0.85,-0.11
231,-62.18,-30.26,-95.97,-0.59,0.79,-0.04
232,-68.64,-26.00,-92.92,-0.60,0.73,0.03
233,-74.52,-18.09,-89.39,-0.62,0.68,0.07
234,-80.12,-7.97,-85.56,-0.68,0.64,0.09
235,-83.83,-0.98,-80.79,-0.74,0.56,0.14
236,-90.89,8.64,-75.37,-0.77,0.54,0.23
237,-97.62,21.66,-68.64,-0.81,0.50,0.25
238,-103.24,30.23,-66.00,-0.87,0.42,0.35
239,-111.68,28.56,-62.82,-1.05,0.36,0.38
240,-117.13,24.24,-57.69,-1.15,0.34,0.41
241,-115.60,9.65,-51.53,-1.34,0.24,0.48
242,-124.11,-13.30,-43.73,-1.42,0.17,0.60
243,-123.89,-14.63,-28.35,-1.36,0.14,0.61
244,-123.08,-12.35,-13.94,-1.33,0.10,0.68
245,-124.02,-10.89,-1.18,-1.27,0.05,0.69
246,-132.72,-16.67,8.52,-1.28,0.02,0.78
247,-126.00,-16.76,18.05,-1.27,0.05,0.78
248,-128.31,-12.78,27.95,-1.23,0.02,0.81
249,-138.81,-25.53,34.89,-1.24,-0.01,0.86
250,-130.24,-26.46,44.49,-1.19,-0.07,0.93
251,-129.73,-36.93,52.84,-1.14,-0.15,1.06
252,-123.13,-37.13,62.17,-1.01,-0.21,1.12
253,-117.86,-42.82,67.60,-0.97,-0.27,1.24
254,-108.26,-45.44,74.99,-0.96,-0.29,1.33
255,-98.24,-47.59,83.04,-0.92,-0.31,1.33
256,-88.79,-40.69,93.18,-0.84,-0.31,1.35
257,-83.68,-42.05,101.11,-0.80,-0.30,1.38
258,-77.11,-31.88,111.10,-0.68,-0.36,1.39
259,-71.54,-27.22,119.11,-0.67,-0.42,1.41
260,-66.93,-30.93,119.86,-0.59,-0.37,1.52
261,-54.56,-27.59,124.05,-0.48,-0.44,1.51
262,-49.33,-20.06,127.07,-0.43,-0.44,1.57
263,-41.57,-13.07,132.14,-0.40,-0.41,1.54
264,-36.09,-2.03,137.48,-0.33,-0.35,1.50
265,-29.27,3.53,141.63,-0.31,-0.34,1.50
266,-26.55,5.31,143.79,-0.25,-0.28,1.51
267,-22.20,2.55,145.60,-0.24,-0.27,1.48
268,-17.31,3.69,147.50,-0.18,-0.22,1.44
269,-13.66,5.85,148.20,-0.11,-0.19,1.42
270,-10.72,8.46,148.11,-0.06,-0.17,1.41
271,-7.01,11.25,149.40,0.01,-0.14,1.38
272,-4.00,14.06,149.68,0.05,-0.11,1.38
273,-1.18,12.56,147.04,0.12,-0.11,1.41
274,2.99,17.47,145.82,0.20,-0.09,1.39
275,8.02,29.48,145.57,0.34,-0.06,1.34
276,5.50,20.82,139.28,0.26,-0.04,1.41
277,10.61,23.71,136.00,0.35,-0.02,1.38
278,14.15,18.11,131.07,0.35,0.02,1.39
279,17.45,20.35,126.72,0.46,0.07,1.37
280,21.01,22.37,120.09,0.50,0.11,1.38
281,27.42,22.34,113.19,0.54,0.10,1.35
282,30.75,20.73,107.71,0.57,0.16,1.38
283,36.08,20.66,102.44,0.57,0.20,1.35
284,42.70,18.90,96.38,0.61,0.27,1.31
285,48.92,12.43,87.79,0.59,0.31,1.27
286,52.29,8.96,80.14,0.65,0.38,1.28
287,58.60,2.40,69.92,0.69,0.43,1.24
288,62.73,-0.41,61.97,0.73,0.46,1.20
289,67.04,0.66,55.08,0.78,0.51,1.17
290,71.37,-1.45,48.20,0.81,0.56,1.17
291,75.39,-4.98,39.22,0.86,0.59,1.18
292,73.54,-5.50,30.43,0.86,0.64,1.13
293,84.43,-2.06,21.68,0.92,0.74,1.02
294,92.75,1.39,12.31,0.94,0.79,1.04
295,89.54,-2.85,-0.06,0.95,0.87,1.02
296,91.05,-3.34,-10.06,0.94,0.88,0.99
297,92.79,-7.83,-21.91,0.98,0.90,1.07
298,101.07,-2.47,-31.48,1.00,0.93,0.90
299,102.53,-6.06,-45.11,0.92,0.97,0.90
300,108.03,-1.69,-54.27,0.89,1.02,0.72
301,107.01,-1.07,-63.04,0.83,1.08,0.72
302,106.73,-0.38,-70.56,0.79,1.11,0.65
303,106.06,-2.27,-78.89,0.73,1.12,0.60
304,101.79,-5.25,-87.15,0.74,1.20,0.62
305,105.71,-7.18,-96.38,0.66,1.14,0.55
306,110.50,-10.03,-104.76,0.49,1.13,0.55
307,108.00,-16.58,-110.56,0.41,1.21,0.44
308,116.14,-17.48,-114.84,0.33,1.16,0.27
309,111.60,-20.64,-117.19,0.31,1.21,0.26
310,110.70,-20.38,-120.93,0.29,1.25,0.23
311,110.15,-27.86,-125.18,0.20,1.23,0.19
312,108.41,-30.21,-127.60,0.16,1.23,0.18
313,106.81,-30.24,-128.47,0.13,1.24,0.09
314,102.31,-30.40,-129.18,0.10,1.27,0.05
315,99.19,-26.43,-130.43,0.06,1.28,-0.04
316,92.38,-26.58,-132.55,-0.03,1.31,-0.08
317,86.67,-26.89,-133.45,-0.08,1.30,-0.14
318,81.47,-29.16,-133.19,-0.16,1.28,-0.18
319,75.57,-33.11,-133.18,-0.22,1.24,-0.19
320,67.97,-34.99,-131.80,-0.26,1.25,-0.22
321,61.94,-37.33,-129.95,-0.30,1.22,-0.24
322,56.37,-35.47,-127.66,-0.31,1.18,-0.26
323,50.11,-32.55,-123.39,-0.34,1.17,-0.26
324,42.81,-28.34,-119.56,-0.39,1.17,-0.31
325,34.32,-21.54,-113.79,-0.44,1.16,-0.34
326,24.43,-19.62,-109.83,-0.53,1.16,-0.33
327,14.73,-22.06,-104.98,-0.60,1.14,-0.38
328,7.05,-28.87,-100.90,-0.66,1.10,-0.35
329,-0.02,-40.09,-97.47,-0.70,1.04,-0.32
330,-11.37,-43.92,-91.33,-0.68,1.00,-0.28
331,-17.56,-42.76,-84.67,-0.67,0.95,-0.27
332,-23.85,-36.23,-77.56,-0.64,0.91,-0.25
333,-32.37,-33.18,-72.26,-0.67,0.90,-0.20
334,-41.65,-24.78,-67.77,-0.63,0.89,-0.17
335,-51.59,-13.39,-63.53,-0.62,0.87,-0.15
336,-41.37,19.45,-53.51,-0.61,0.75,-0.09
337,-66.92,-10.53,-64.41,-0.76,0.70,0.09
338,-64.99,-0.76,-58.76,-0.79,0.65,0.09
339,-77.27,-9.79,-57.25,-0.94,0.61,0.11
340,-84.73,-12.76,-52.61,-0.96,0.56,0.11
341,-87.73,-10.49,-46.06,-1.00,0.49,0.22
342,-97.68,-12.58,-39.69,-1.03,0.47,0.29
343,-102.56,-10.87,-31.71,-1.06,0.42,0.32
344,-105.83,-9.53,-25.05,-1.06,0.39,0.40
345,-102.93,-3.91,-15.24,-1.09,0.38,0.40
346,-113.01,-9.45,-9.50,-1.07,0.29,0.55
347,-112.27,-6.81,-1.30,-1.04,0.18,0.61
348,-112.53,-6.35,4.81,-1.02,0.15,0.67
349,-116.34,-9.07,10.44,-1.06,0.10,0.75
350,-113.40,-11.54,17.19,-1.10,0.04,0.79
351,-118.38,-11.63,25.63,-1.05,0.06,0.83
352,-114.38,-8.63,33.60,-1.01,0.04,0.82
353,-116.64,-10.15,40.43,-1.04,0.03,0.90
354,-118.85,-8.02,49.28,-1.02,-0.02,0.96
355,-117.34,-9.54,56.06,-1.00,-0.08,1.04
356,-112.76,-9.89,64.73,-0.96,-0.09,1.02
357,-110.38,-12.92,68.12,-0.96,-0.16,1.13
358,-103.82,-21.69,74.87,-0.97,-0.22,1.20
359,-98.08,-23.15,80.82,-0.94,-0.26,1.29
360,-92.15,-26.92,90.70,-0.95,-0.29,1.31
361,-84.21,-33.34,96.11,-0.94,-0.34,1.37
362,-74.26,-42.17,105.04,-0.89,-0.37,1.38
363,-68.15,-43.62,113.68,-0.79,-0.39,1.43
364,-59.91,-44.03,122.46,-0.73,-0.37,1.44
365,-49.39,-41.86,124.52,-0.55,-0.40,1.50
366,-48.29,-35.42,130.18,-0.39,-0.38,1.52
367,-44.23,-24.27,135.25,-0.27,-0.34,1.53
368,-34.73,-4.18,139.19,-0.11,-0.32,1.51
369,-34.89,1.15,138.27,-0.14,-0.22,1.48
370,-31.16,11.74,137.57,-0.11,-0.19,1.41
371,-28.76,17.39,139.33,-0.14,-0.14,1.40
372,-28.69,25.73,142.81,-0.14,-0.10,1.36
373,-24.96,21.25,143.86,-0.16,-0.12,1.43
374,-20.96,11.24,142.93,-0.10,-0.12,1.45
375,-12.92,8.00,141.51,-0.01,-0.13,1.45
376,-8.21,10.96,143.07,0.08,-0.17,1.43
377,0.12,10.09,140.29,0.20,-0.17,1.45
378,6.08,15.54,137.73,0.36,-0.11,1.49
379,8.61,26.92,134.79,0.47,-0.11,1.49
380,16.11,35.44,127.85,0.50,-0.10,1.44
381,17.40,39.15,121.13,0.49,0.04,1.40
382,21.36,41.63,115.40,0.47,0.13,1.33
383,22.70,46.96,111.69,0.44,0.19,1.26
384,24.49,46.43,106.47,0.40,0.24,1.23
385,26.95,33.48,98.84,0.33,0.27,1.24
386,30.69,21.05,93.59,0.33,0.29,1.22
387,33.85,11.04,88.96,0.37,0.30,1.23
388,39.16,5.82,83.01,0.43,0.33,1.21
389,42.92,0.31,76.92,0.48,0.39,1.18
390,46.61,-5.36,71.08,0.52,0.44,1.18
391,50.31,-7.91,64.78,0.60,0.49,1.15
392,53.98,-12.03,56.67,0.64,0.55,1.14
393,58.00,-15.56,48.70,0.69,0.58,1.12
394,61.27,-13.47,41.69,0.75,0.64,1.08
395,65.37,-12.43,33.53,0.77,0.68,1.05
396,68.52,-12.64,25.28,0.78,0.75,1.03
397,72.00,-12.56,17.45,0.77,0.81,0.96
398,77.48,-10.78,12.05,0.84,0.81,0.90
399,78.73,-16.38,-0.81,0.82,0.88,0.84
400,82.52,-19.18,-10.47,0.79,0.99,0.82
