,gyro_x,gyro_y,gyro_z,acce_x,acce_y,acce_z
0,-0.05,-0.44,1.08,-0.03,0.07,1.05
1,-0.40,0.55,1.01,-0.03,0.07,1.04
2,-0.66,0.38,1.44,-0.04,0.08,1.04
3,-0.75,0.29,1.13,-0.03,0.07,1.05
4,-0.98,-0.12,0.63,-0.02,0.07,1.06
5,-1.22,-0.87,-0.06,-0.02,0.06,1.05
6,-1.08,-1.05,-0.67,-0.02,0.06,1.05
7,-0.34,-2.17,-1.31,-0.02,0.06,1.04
8,-2.05,-1.39,-1.62,-0.02,0.06,1.05
9,-2.27,-2.34,-2.92,-0.03,0.06,1.05
10,-2.70,-1.50,-2.76,-0.03,0.06,1.05
11,-2.40,0.15,-2.55,-0.03,0.06,1.07
12,-2.35,1.54,-3.10,-0.04,0.05,1.08
13,-2.14,2.81,-2.98,-0.05,0.05,1.07
14,-1.73,3.59,-2.78,-0.05,0.05,1.07
15,-1.50,3.16,-2.14,-0.07,0.05,1.08
16,-1.44,2.41,-1.48,-0.07,0.05,1.07
17,-1.66,3.76,-0.79,-0.08,0.04,1.07
18,-1.95,3.05,-0.52,-0.07,0.05,1.08
19,-2.18,1.79,-0.35,-0.08,0.04,1.09
20,-1.83,-1.19,-0.08,-0.09,0.04,1.10
21,-1.01,-2.92,-0.06,-0.08,0.04,1.12
22,0.03,-3.22,-0.11,-0.07,0.03,1.14
23,0.72,-3.56,0.02,-0.08,0.05,1.14
24,1.59,-3.51,0.50,-0.08,0.04,1.14
25,2.18,-3.85,-0.05,-0.07,0.03,1.14
26,2.96,-2.95,1.69,-0.07,0.04,1.14
27,4.14,-3.45,2.53,-0.07,0.03,1.16
28,4.60,-3.40,2.93,-0.08,0.02,1.16
29,5.47,-2.93,3.91,-0.08,0.02,1.17
30,6.38,-3.91,4.15,-0.08,0.02,1.18
31,8.52,-5.97,4.06,-0.08,0.01,1.19
32,9.85,-4.84,4.93,-0.06,0.01,1.21
33,12.03,-3.51,5.36,-0.07,-0.00,1.23
34,14.09,-2.02,6.64,-0.08,0.00,1.24
35,14.34,0.81,9.27,-0.07,0.01,1.26
36,15.66,4.41,11.77,-0.04,0.00,1.32
37,19.22,9.30,9.85,0.00,-0.02,1.34
38,24.02,15.04,8.93,0.03,-0.03,1.37
39,27.30,21.51,8.37,0.01,-0.02,1.38
40,30.52,22.56,6.69,-0.04,-0.03,1.39
41,32.89,21.98,5.47,-0.07,-0.04,1.39
42,36.03,20.81,4.27,-0.13,-0.07,1.38
43,39.92,20.67,4.11,-0.20,-0.05,1.44
44,44.02,16.70,7.30,-0.25,-0.10,1.45
45,46.99,13.21,12.46,-0.26,-0.08,1.45
46,51.21,11.25,17.44,-0.31,-0.06,1.49
47,56.52,10.37,20.79,-0.34,-0.09,1.51
48,61.62,6.35,27.94,-0.36,-0.07,1.53
49,67.42,6.50,33.13,-0.33,-0.08,1.56
50,74.27,9.66,37.48,-0.29,-0.09,1.56
51,81.44,12.27,42.66,-0.26,-0.10,1.54
52,87.80,14.85,47.05,-0.23,-0.09,1.53
53,93.95,16.32,50.12,-0.21,-0.08,1.51
54,99.88,14.63,53.08,-0.19,-0.08,1.51
55,105.42,14.99,55.30,-0.17,-0.08,1.50
56,111.45,15.11,56.44,-0.14,-0.08,1.49
57,118.21,17.95,55.48,-0.12,-0.08,1.47
58,123.21,15.92,56.72,-0.08,-0.07,1.43
59,126.55,17.73,55.91,-0.06,-0.03,1.40
60,131.63,16.99,53.53,-0.06,-0.02,1.36
61,135.91,14.38,51.77,-0.07,-0.00,1.33
62,140.61,13.42,50.75,-0.08,0.01,1.29
63,142.90,14.96,50.64,-0.08,0.03,1.24
64,144.34,14.27,50.98,-0.09,0.04,1.24
65,146.73,14.61,51.02,-0.09,0.05,1.25
66,149.88,15.51,50.02,-0.08,0.05,1.26
67,154.72,19.63,49.36,-0.05,0.05,1.27
68,159.15,23.95,49.01,-0.06,0.06,1.27
69,162.29,29.18,50.61,-0.09,0.08,1.27
70,166.18,29.85,51.74,-0.11,0.08,1.25
71,172.96,30.11,52.47,-0.12,0.07,1.23
72,177.54,30.67,54.93,-0.14,0.08,1.22
73,181.07,28.49,58.55,-0.18,0.09,1.18
74,184.76,20.53,62.17,-0.24,0.09,1.15
75,190.38,8.47,66.00,-0.24,0.08,1.20
76,194.93,2.96,70.34,-0.23,0.08,1.18
77,200.70,-0.82,73.69,-0.19,0.10,1.19
78,205.91,1.48,76.27,-0.13,0.12,1.16
79,211.69,0.53,78.35,-0.07,0.13,1.11
80,216.12,0.79,79.05,-0.02,0.15,1.07
81,220.14,4.06,77.47,0.03,0.16,1.04
82,223.13,11.05,73.56,0.06,0.17,1.01
83,225.66,18.08,72.41,0.07,0.21,0.98
84,228.87,19.89,72.31,0.02,0.21,0.96
85,232.24,18.99,72.12,0.01,0.22,0.94
86,234.78,18.32,72.63,0.01,0.24,0.91
87,237.86,21.56,74.72,0.05,0.25,0.88
88,241.83,21.83,76.50,0.00,0.26,0.86
89,247.95,21.39,76.98,0.02,0.25,0.87
90,252.89,23.34,77.94,0.06,0.24,0.84
91,255.34,25.86,82.35,0.07,0.28,0.79
92,258.06,23.24,86.75,0.06,0.27,0.72
93,262.55,15.86,88.47,0.08,0.27,0.70
94,270.43,7.86,87.80,0.17,0.27,0.67
95,279.40,9.57,81.62,0.26,0.23,0.60
96,285.83,11.77,83.10,0.32,0.26,0.66
97,292.32,18.18,85.45,0.38,0.29,0.60
98,301.60,19.10,81.02,0.42,0.26,0.52
99,312.34,16.29,78.47,0.51,0.25,0.48
100,324.96,18.63,72.14,0.67,0.30,0.35
101,326.98,18.32,68.29,0.60,0.27,0.29
102,327.69,20.09,66.47,0.64,0.34,0.20
103,330.87,14.56,58.24,0.66,0.33,0.11
104,332.89,5.13,54.81,0.69,0.38,-0.01
105,336.96,-3.30,46.43,0.73,0.37,-0.10
106,339.48,-16.73,40.52,0.71,0.37,-0.15
107,339.19,-23.56,34.93,0.75,0.39,-0.21
108,341.71,-30.12,26.72,0.80,0.37,-0.31
109,339.40,-30.99,17.18,0.85,0.40,-0.38
110,336.78,-32.24,7.59,0.91,0.36,-0.52
111,333.92,-38.12,-0.85,0.91,0.37,-0.59
112,332.12,-44.95,-12.41,0.88,0.38,-0.70
113,320.98,-37.34,-30.18,0.96,0.42,-0.87
114,302.99,-36.76,-42.29,0.92,0.45,-0.98
115,295.33,-36.63,-54.73,0.79,0.48,-1.19
116,270.49,-38.53,-72.89,0.84,0.52,-1.14
117,245.08,-29.10,-84.43,0.84,0.58,-1.29
118,220.63,-22.60,-96.61,0.82,0.56,-1.36
119,196.20,-17.44,-106.20,0.74,0.59,-1.42
120,174.35,-20.24,-117.13,0.65,0.56,-1.43
121,150.53,-26.27,-126.79,0.57,0.52,-1.41
122,136.31,-36.20,-133.92,0.50,0.45,-1.37
123,119.63,-40.34,-136.32,0.45,0.42,-1.32
124,107.48,-38.73,-139.21,0.41,0.36,-1.25
125,96.38,-33.68,-143.57,0.39,0.32,-1.20
126,85.95,-27.53,-145.92,0.32,0.28,-1.19
127,75.50,-27.97,-145.57,0.21,0.28,-1.19
128,63.68,-29.69,-144.38,0.11,0.29,-1.26
129,50.23,-37.95,-142.12,0.01,0.32,-1.31
130,33.69,-44.55,-139.65,-0.02,0.35,-1.38
131,14.95,-49.27,-137.40,-0.06,0.38,-1.46
132,-4.40,-59.11,-137.89,-0.14,0.41,-1.48
133,-24.56,-67.18,-137.86,-0.18,0.42,-1.50
134,-44.95,-73.85,-138.93,-0.20,0.42,-1.49
135,-63.19,-78.96,-141.95,-0.21,0.39,-1.44
136,-79.28,-80.56,-145.11,-0.23,0.36,-1.37
137,-92.85,-82.55,-148.75,-0.29,0.32,-1.27
138,-105.80,-77.65,-151.65,-0.32,0.29,-1.18
139,-115.97,-67.59,-151.18,-0.39,0.26,-1.07
140,-124.96,-58.41,-148.98,-0.49,0.24,-0.98
141,-132.27,-50.20,-144.67,-0.60,0.23,-0.91
142,-137.56,-46.47,-139.71,-0.72,0.23,-0.86
143,-145.19,-43.56,-130.50,-0.85,0.29,-0.84
144,-153.21,-46.27,-115.80,-1.03,0.34,-0.82
145,-170.85,-50.40,-97.57,-1.24,0.46,-0.78
146,-191.73,-53.40,-82.05,-1.29,0.46,-0.80
147,-215.13,-58.89,-60.44,-1.37,0.48,-0.74
148,-234.02,-60.95,-41.11,-1.38,0.44,-0.63
149,-249.68,-56.23,-20.49,-1.35,0.43,-0.47
150,-264.38,-51.76,-0.29,-1.36,0.44,-0.24
151,-261.27,-42.41,10.92,-1.20,0.36,-0.09
152,-261.94,-32.96,21.31,-1.17,0.34,0.06
153,-270.20,-21.28,24.26,-1.14,0.40,0.24
154,-259.98,-18.52,40.69,-1.20,0.34,0.28
155,-256.50,-19.10,51.04,-1.24,0.40,0.39
156,-250.84,-16.66,57.69,-1.21,0.41,0.46
157,-246.18,-15.80,63.01,-1.26,0.43,0.53
158,-235.86,-19.10,73.88,-1.29,0.42,0.65
159,-229.44,-14.06,80.76,-1.29,0.50,0.80
160,-217.31,-12.38,85.21,-1.26,0.49,0.89
161,-204.18,-9.51,91.53,-1.25,0.52,0.90
162,-192.15,-14.17,99.25,-1.32,0.55,0.91
163,-186.24,-1.53,112.75,-1.23,0.56,0.98
164,-180.89,-5.66,128.82,-1.27,0.59,1.05
165,-169.36,2.34,140.75,-1.18,0.56,1.10
166,-158.72,9.31,150.73,-1.09,0.55,1.10
167,-156.93,13.40,169.50,-1.09,0.65,1.21
168,-145.19,20.78,177.19,-0.92,0.60,1.18
169,-136.21,35.60,183.89,-0.80,0.63,1.24
170,-125.22,44.02,187.95,-0.74,0.66,1.25
171,-116.58,47.54,193.79,-0.68,0.70,1.26
172,-107.08,54.35,199.89,-0.57,0.70,1.27
173,-98.61,55.65,204.49,-0.48,0.71,1.35
174,-85.89,58.66,205.65,-0.34,0.70,1.40
175,-72.37,65.60,201.39,-0.18,0.72,1.46
176,-60.31,76.11,197.44,-0.08,0.73,1.46
177,-48.63,79.71,190.98,-0.06,0.74,1.48
178,-40.84,81.08,191.44,-0.02,0.80,1.52
179,-30.02,74.18,191.22,0.03,0.80,1.56
180,-14.99,76.64,185.97,0.17,0.77,1.45
181,-8.66,84.12,187.68,0.23,0.84,1.50
182,0.55,84.93,186.99,0.29,0.82,1.46
183,10.29,82.55,185.21,0.36,0.83,1.45
184,21.95,82.90,181.02,0.45,0.82,1.42
185,32.18,79.82,175.79,0.51,0.81,1.42
186,40.85,78.63,170.78,0.59,0.80,1.40
187,48.96,71.83,165.08,0.63,0.79,1.37
188,60.78,67.57,157.68,0.69,0.77,1.31
189,67.54,65.76,150.43,0.74,0.79,1.29
190,79.08,64.93,145.11,0.77,0.75,1.21
191,86.84,63.94,140.20,0.78,0.75,1.15
192,95.71,59.01,135.66,0.76,0.75,1.12
193,103.91,54.53,132.12,0.78,0.74,1.05
194,110.34,46.72,127.77,0.79,0.75,1.01
195,120.76,34.92,123.98,0.82,0.73,0.95
196,128.46,27.15,120.17,0.86,0.73,0.92
197,136.12,19.31,116.06,0.89,0.73,0.86
198,143.22,9.16,112.49,0.91,0.72,0.80
199,152.37,-6.60,107.47,0.94,0.70,0.77
200,162.35,-16.66,98.21,1.01,0.70,0.71
201,170.18,-23.71,91.89,1.06,0.71,0.64
202,177.73,-24.93,83.18,1.13,0.69,0.55
203,183.82,-26.44,73.68,1.14,0.67,0.48
204,190.76,-29.66,63.79,1.13,0.67,0.39
205,193.94,-33.94,58.17,1.10,0.69,0.30
206,199.66,-36.93,50.89,1.09,0.66,0.20
207,205.39,-41.82,43.21,1.07,0.64,0.13
208,207.51,-43.92,34.38,1.05,0.64,0.05
209,209.77,-51.86,30.98,0.99,0.60,-0.06
210,212.41,-58.32,29.04,0.92,0.61,-0.13
211,216.31,-76.58,22.96,0.87,0.56,-0.20
212,229.94,-106.03,31.71,0.81,0.54,-0.32
213,221.21,-107.57,17.37,0.80,0.58,-0.29
214,224.05,-117.19,13.34,0.84,0.49,-0.49
215,224.18,-126.79,7.19,0.82,0.47,-0.59
216,220.38,-135.36,3.69,0.82,0.47,-0.68
217,225.33,-145.45,-0.67,0.85,0.43,-0.78
218,217.91,-154.29,-11.24,0.86,0.47,-0.89
219,211.10,-149.94,-22.46,0.94,0.48,-0.99
220,211.80,-162.90,-30.27,0.65,0.42,-1.31
221,185.66,-162.78,-32.92,0.65,0.68,-1.12
222,173.31,-150.90,-41.11,0.82,0.62,-1.30
223,160.41,-141.60,-58.82,0.88,0.55,-1.43
224,139.95,-143.30,-71.10,0.79,0.58,-1.49
225,114.09,-144.29,-75.50,0.71,0.65,-1.52
226,84.24,-151.82,-78.89,0.66,0.66,-1.55
227,67.97,-143.31,-88.15,0.68,0.68,-1.58
228,47.69,-148.60,-101.34,0.63,0.55,-1.51
229,26.82,-145.19,-106.08,0.58,0.57,-1.45
230,7.66,-134.72,-111.28,0.58,0.53,-1.43
231,-9.11,-123.76,-113.76,0.52,0.47,-1.36
232,-23.31,-118.81,-117.45,0.45,0.45,-1.29
233,-33.56,-115.74,-126.29,0.38,0.41,-1.25
234,-39.76,-118.18,-124.92,0.31,0.37,-1.13
235,-45.27,-118.44,-126.93,0.25,0.36,-1.08
236,-50.58,-118.27,-128.53,0.20,0.33,-1.05
237,-54.90,-104.05,-122.53,0.33,0.41,-1.16
238,-57.30,-112.63,-127.13,0.18,0.26,-1.06
239,-65.34,-110.67,-124.64,0.07,0.39,-0.98
240,-75.73,-113.88,-123.89,0.02,0.36,-1.02
241,-84.76,-112.34,-122.40,-0.02,0.39,-0.98
242,-91.88,-109.19,-124.73,-0.01,0.38,-0.98
243,-100.27,-110.69,-128.00,-0.04,0.39,-0.94
244,-105.51,-111.45,-132.41,-0.04,0.36,-0.87
245,-107.60,-116.40,-140.70,-0.06,0.32,-0.79
246,-111.69,-108.14,-145.37,-0.07,0.32,-0.72
247,-115.54,-104.35,-148.27,-0.16,0.30,-0.59
248,-119.10,-92.93,-148.67,-0.23,0.29,-0.53
249,-122.96,-85.21,-144.49,-0.38,0.32,-0.48
250,-128.64,-78.31,-137.53,-0.48,0.35,-0.47
251,-134.27,-73.68,-129.33,-0.58,0.37,-0.47
252,-141.82,-65.62,-120.56,-0.59,0.46,-0.46
253,-153.82,-58.66,-116.24,-0.73,0.45,-0.48
254,-166.64,-54.00,-109.01,-0.84,0.49,-0.48
255,-182.72,-47.82,-103.28,-0.90,0.51,-0.46
256,-197.92,-47.42,-96.87,-0.99,0.49,-0.40
257,-210.44,-56.72,-92.90,-1.09,0.49,-0.30
258,-222.69,-62.98,-86.50,-1.16,0.47,-0.22
259,-234.85,-63.85,-74.89,-1.25,0.42,-0.09
260,-246.58,-56.63,-61.57,-1.31,0.41,0.09
261,-256.29,-46.24,-49.74,-1.35,0.38,0.29
262,-254.43,-34.67,-40.05,-1.34,0.31,0.42
263,-249.01,-26.73,-28.95,-1.39,0.29,0.59
264,-239.71,-26.93,-18.55,-1.47,0.27,0.72
265,-229.13,-29.33,-5.27,-1.56,0.30,0.89
266,-214.32,-24.21,9.95,-1.59,0.34,0.95
267,-212.93,-13.50,23.79,-1.51,0.39,0.97
268,-203.33,-7.50,39.94,-1.50,0.36,0.98
269,-204.18,-6.67,62.00,-1.51,0.43,0.91
270,-205.13,-4.64,87.08,-1.57,0.50,1.00
271,-208.24,2.58,103.89,-1.44,0.49,1.11
272,-205.48,18.21,120.64,-1.28,0.46,1.11
273,-200.41,32.37,135.08,-1.22,0.47,1.12
274,-197.98,37.01,147.01,-1.21,0.48,1.22
275,-188.85,25.91,158.26,-1.21,0.42,1.36
276,-178.23,18.61,169.86,-1.10,0.44,1.48
277,-160.64,17.30,175.30,-0.95,0.39,1.59
278,-139.60,29.92,178.53,-0.82,0.38,1.70
279,-119.44,42.08,183.33,-0.75,0.39,1.75
280,-104.23,52.52,189.60,-0.64,0.45,1.72
281,-88.64,59.80,195.01,-0.55,0.48,1.62
282,-79.45,62.31,196.05,-0.45,0.55,1.53
283,-73.10,62.75,193.92,-0.34,0.60,1.45
284,-68.78,68.70,191.69,-0.22,0.67,1.38
285,-67.19,77.08,188.98,-0.16,0.69,1.34
286,-66.03,84.00,186.38,-0.12,0.71,1.32
287,-63.40,84.37,183.19,-0.11,0.71,1.34
288,-56.26,76.58,181.74,-0.09,0.71,1.40
289,-49.08,74.12,181.91,-0.03,0.67,1.42
290,-38.15,77.76,180.60,0.02,0.64,1.50
291,-25.95,85.82,176.72,0.09,0.58,1.59
292,-8.93,85.54,175.13,0.09,0.52,1.66
293,1.68,101.30,160.12,0.28,0.48,1.69
294,20.63,97.85,160.60,0.31,0.52,1.59
295,30.60,93.83,160.92,0.29,0.58,1.55
296,39.98,89.22,160.32,0.36,0.59,1.51
297,54.34,85.02,158.87,0.40,0.58,1.44
298,62.43,82.43,155.15,0.43,0.65,1.41
299,73.50,67.88,150.85,0.40,0.62,1.31
300,82.18,57.56,146.73,0.46,0.67,1.27
301,92.63,46.98,144.29,0.51,0.66,1.23
302,99.22,40.84,141.73,0.59,0.69,1.19
303,109.82,30.67,133.76,0.66,0.65,1.11
304,117.36,24.50,127.15,0.70,0.68,1.05
305,124.58,21.82,121.21,0.76,0.69,1.01
306,133.44,22.60,113.82,0.82,0.68,0.96
307,144.09,18.92,105.97,0.82,0.66,0.93
308,152.32,15.28,101.27,0.81,0.69,0.87
309,161.13,12.18,95.40,0.82,0.67,0.77
310,168.31,5.71,89.18,0.82,0.67,0.70
311,176.00,-2.43,84.05,0.82,0.66,0.62
312,181.45,-13.76,79.92,0.81,0.67,0.55
313,188.26,-20.27,75.53,0.83,0.66,0.45
314,192.84,-29.83,72.00,0.83,0.65,0.37
315,196.81,-34.31,70.18,0.86,0.65,0.30
316,204.29,-39.82,64.84,0.88,0.62,0.25
317,209.53,-46.18,59.88,0.87,0.64,0.16
318,212.87,-49.27,54.67,0.87,0.64,0.07
319,214.78,-54.18,50.24,0.87,0.63,-0.02
320,219.56,-57.91,42.78,0.87,0.60,-0.09
321,221.63,-69.62,37.74,0.81,0.60,-0.09
322,229.76,-76.09,29.98,0.83,0.54,-0.16
323,234.00,-76.99,26.56,0.82,0.55,-0.20
324,241.39,-76.43,17.51,0.84,0.50,-0.30
325,248.76,-85.95,11.73,0.78,0.48,-0.33
326,255.24,-93.91,8.47,0.77,0.47,-0.43
327,260.40,-96.37,7.37,0.80,0.45,-0.60
328,255.48,-117.39,2.67,0.71,0.51,-0.69
329,264.89,-148.58,16.69,0.79,0.32,-0.95
330,244.08,-134.66,8.24,0.61,0.73,-0.96
331,210.72,-170.63,15.13,0.71,0.62,-1.11
332,219.24,-134.90,1.60,0.72,0.77,-1.26
333,203.16,-121.11,-15.56,0.95,0.60,-1.29
334,183.77,-134.76,-32.08,0.71,0.66,-1.46
335,163.36,-132.00,-42.75,0.69,0.70,-1.55
336,141.30,-128.43,-54.02,0.70,0.73,-1.61
337,119.34,-128.69,-63.40,0.66,0.70,-1.63
338,100.08,-129.08,-69.77,0.62,0.67,-1.62
339,80.06,-129.97,-75.25,0.59,0.66,-1.60
340,63.44,-129.57,-77.62,0.56,0.61,-1.51
341,47.62,-130.72,-79.94,0.50,0.56,-1.46
342,33.50,-128.06,-83.54,0.50,0.50,-1.39
343,22.34,-128.53,-86.72,0.47,0.47,-1.35
344,11.97,-127.47,-90.12,0.42,0.46,-1.29
345,0.99,-115.65,-91.91,0.43,0.47,-1.34
346,-10.15,-109.79,-93.56,0.35,0.48,-1.33
347,-22.96,-106.12,-93.34,0.30,0.50,-1.35
348,-36.21,-102.89,-94.18,0.26,0.51,-1.36
349,-51.85,-101.59,-98.44,0.21,0.53,-1.33
350,-65.22,-98.67,-101.30,0.17,0.53,-1.30
351,-74.31,-103.48,-106.09,0.11,0.51,-1.23
352,-79.07,-114.17,-115.54,0.03,0.46,-1.15
353,-86.93,-115.18,-117.98,0.04,0.47,-1.12
354,-95.25,-106.21,-117.02,0.02,0.46,-1.07
355,-99.25,-103.28,-117.62,-0.03,0.43,-0.98
356,-104.76,-110.46,-120.52,-0.09,0.41,-0.97
357,-114.70,-103.59,-121.79,-0.11,0.44,-0.90
358,-125.66,-88.92,-120.81,-0.09,0.45,-0.86
359,-134.95,-75.94,-118.64,-0.17,0.41,-0.93
360,-148.29,-74.12,-113.98,-0.30,0.44,-0.87
361,-161.44,-68.17,-108.98,-0.33,0.44,-0.83
362,-173.91,-59.89,-104.78,-0.35,0.42,-0.79
363,-185.71,-54.82,-100.14,-0.44,0.43,-0.74
364,-199.79,-52.76,-92.50,-0.53,0.44,-0.72
365,-212.41,-57.16,-88.84,-0.64,0.43,-0.63
366,-221.56,-63.01,-86.64,-0.67,0.41,-0.48
367,-228.78,-59.39,-84.20,-0.65,0.39,-0.43
368,-236.21,-55.39,-80.63,-0.66,0.37,-0.38
369,-242.12,-54.84,-79.47,-0.70,0.32,-0.28
370,-248.53,-44.08,-71.04,-0.71,0.30,-0.14
371,-254.38,-37.48,-66.37,-0.77,0.29,-0.08
372,-263.11,-34.08,-57.25,-0.84,0.32,0.05
373,-274.14,-32.95,-36.87,-0.91,0.36,-0.04
374,-290.06,-37.13,-32.46,-0.96,0.36,0.11
375,-294.38,-36.96,-18.05,-0.99,0.31,0.14
376,-298.73,-40.02,-9.94,-0.99,0.30,0.30
377,-302.63,-49.83,0.58,-1.07,0.28,0.52
378,-299.71,-53.77,5.65,-1.01,0.22,0.76
379,-279.88,-49.83,13.04,-0.97,0.15,1.01
380,-278.00,-48.17,22.66,-0.99,0.21,1.14
381,-264.43,-30.67,29.57,-0.93,0.18,1.16
382,-257.10,-26.08,37.11,-0.95,0.21,1.20
383,-247.73,-15.51,41.98,-0.88,0.22,1.20
384,-229.37,-14.35,49.71,-0.98,0.19,1.23
385,-211.13,-16.78,57.34,-1.06,0.18,1.38
386,-195.30,-22.21,63.82,-1.12,0.22,1.53
387,-179.92,-7.97,76.93,-1.03,0.27,1.55
388,-168.81,0.34,84.08,-1.10,0.37,1.46
389,-155.33,6.78,92.46,-1.02,0.35,1.35
390,-148.29,2.96,101.05,-1.04,0.41,1.31
391,-144.31,1.05,114.95,-1.02,0.45,1.31
392,-143.66,4.06,127.19,-0.98,0.47,1.32
393,-144.20,8.46,138.56,-0.93,0.43,1.36
394,-140.46,17.66,149.02,-0.84,0.43,1.40
395,-133.36,27.11,156.89,-0.74,0.41,1.48
396,-119.71,34.26,158.53,-0.64,0.38,1.58
397,-103.51,47.24,156.43,-0.52,0.37,1.63
398,-90.87,66.58,156.67,-0.44,0.39,1.59
399,-80.92,76.47,158.20,-0.48,0.42,1.56
400,-73.18,80.53,163.19,-0.50,0.44,1.50
