,gyro_x,gyro_y,gyro_z,acce_x,acce_y,acce_z
0,-1.27,-1.65,-0.56,-0.01,-0.04,1.07
1,-0.43,-1.59,-0.44,-0.01,-0.05,1.06
2,0.21,-1.50,0.09,-0.00,-0.05,1.07
3,0.55,-2.50,0.21,-0.01,-0.05,1.07
4,0.40,-2.55,-0.27,-0.00,-0.06,1.07
5,0.58,-2.02,0.12,0.00,-0.07,1.06
6,-0.75,-1.48,-0.15,0.00,-0.05,1.07
7,-0.18,-1.01,-0.49,0.01,-0.06,1.06
8,1.31,-1.07,-0.63,0.01,-0.05,1.06
9,1.66,-0.89,-0.50,0.01,-0.05,1.06
10,1.15,-1.11,-0.38,0.00,-0.04,1.07
11,0.79,-0.98,-0.84,0.00,-0.04,1.06
12,0.44,-0.96,-1.28,0.00,-0.05,1.07
13,0.09,-1.01,-1.82,0.00,-0.03,1.07
14,0.49,-1.16,-1.85,0.01,-0.04,1.07
15,1.10,-0.98,-0.92,0.00,-0.04,1.07
16,0.99,-1.02,-0.78,0.01,-0.03,1.07
17,0.98,-1.74,-1.22,-0.00,-0.04,1.07
18,1.01,-1.65,-0.69,0.01,-0.04,1.07
19,1.48,-1.37,-0.38,0.01,-0.04,1.06
20,1.04,-1.63,-0.31,0.00,-0.04,1.07
21,0.95,-1.42,-0.09,0.00,-0.05,1.07
22,1.01,-0.99,-0.12,0.00,-0.05,1.06
23,1.05,-1.63,-0.53,-0.00,-0.04,1.07
24,0.75,-1.71,-0.55,0.00,-0.04,1.07
25,0.50,-1.44,-0.56,0.01,-0.04,1.06
26,0.43,-1.36,-0.76,0.01,-0.04,1.06
27,0.31,-1.50,-0.84,-0.00,-0.05,1.07
28,0.14,-1.56,-0.76,0.00,-0.05,1.07
29,0.00,-1.07,-0.79,0.01,-0.05,1.07
30,0.96,-1.62,-1.02,0.01,-0.04,1.07
31,0.72,-1.86,-0.58,-0.00,-0.04,1.06
32,0.93,-1.60,0.23,0.02,-0.04,1.07
33,0.44,-1.19,-0.38,0.01,-0.04,1.06
34,0.17,-1.05,-1.28,0.01,-0.05,1.07
35,-0.05,-0.43,-0.99,0.02,-0.04,1.06
36,0.34,-0.70,-1.08,0.02,-0.04,1.07
37,0.23,-0.24,-1.47,0.01,-0.04,1.06
38,-1.53,1.30,-2.03,0.01,-0.05,1.07
39,-4.95,2.24,-2.06,0.01,-0.04,1.07
40,-4.15,-0.47,-1.91,0.01,-0.04,1.08
41,-0.75,-0.21,-1.73,0.01,-0.04,1.07
42,2.75,-0.47,-0.69,0.01,-0.04,1.06
43,2.92,0.14,0.43,0.01,-0.04,1.06
44,1.08,0.02,0.67,0.01,-0.05,1.07
45,-0.85,-0.02,0.05,0.01,-0.04,1.07
46,-0.41,-0.37,-0.44,0.01,-0.04,1.07
47,1.33,-0.58,-0.15,0.00,-0.04,1.06
48,1.91,-0.53,0.12,0.01,-0.04,1.06
49,0.89,-0.02,0.18,0.01,-0.04,1.06
50,-0.50,-0.38,-0.60,-0.00,-0.05,1.06
51,-1.08,-0.34,-0.70,0.01,-0.05,1.07
52,-0.47,0.03,-0.15,0.00,-0.05,1.07
53,0.12,-0.08,-0.29,0.00,-0.04,1.07
54,0.32,-0.27,0.20,0.00,-0.05,1.06
55,0.09,0.14,0.95,0.01,-0.05,1.06
56,-0.23,0.17,1.31,0.00,-0.04,1.07
57,-0.24,-0.34,1.08,0.00,-0.05,1.07
58,-0.05,-0.17,1.66,0.01,-0.05,1.07
59,-0.08,0.12,1.44,0.00,-0.04,1.06
60,-0.41,0.03,0.82,-0.00,-0.04,1.07
61,-0.55,-0.02,0.99,-0.00,-0.05,1.08
62,-0.52,0.20,1.45,0.01,-0.04,1.06
63,-0.12,0.15,1.01,0.01,-0.05,1.07
64,0.27,-0.05,1.24,0.01,-0.04,1.06
65,0.50,0.47,1.79,0.01,-0.04,1.07
66,0.11,0.09,1.44,0.01,-0.04,1.07
67,0.15,0.11,1.50,0.00,-0.04,1.06
68,-0.37,0.18,1.83,0.00,-0.04,1.06
69,-0.29,0.20,2.27,0.01,-0.04,1.07
70,-0.02,0.02,2.14,0.00,-0.04,1.07
71,0.06,0.27,2.34,0.01,-0.05,1.07
72,0.03,0.26,2.26,0.01,-0.05,1.06
73,-0.27,0.29,1.21,0.02,-0.04,1.07
74,-0.46,0.21,1.10,0.01,-0.05,1.07
75,-0.63,0.81,1.21,0.02,-0.04,1.06
76,-0.35,0.79,1.45,0.02,-0.04,1.06
77,0.15,0.75,1.40,0.01,-0.04,1.06
78,0.17,0.85,1.82,0.02,-0.05,1.07
79,-0.20,1.45,1.88,0.01,-0.04,1.06
80,-0.44,1.04,1.36,0.01,-0.04,1.07
81,-0.32,0.61,1.28,0.01,-0.04,1.07
82,-0.72,0.58,1.30,0.01,-0.05,1.06
83,-0.56,0.34,0.76,0.01,-0.04,1.06
84,-0.21,0.58,1.18,0.01,-0.05,1.06
85,-0.38,1.47,1.39,0.01,-0.06,1.06
86,-1.01,1.22,0.47,0.01,-0.05,1.07
87,-1.44,1.31,0.00,0.01,-0.05,1.07
88,-1.05,1.48,0.47,0.01,-0.05,1.07
89,-0.38,1.40,1.27,0.00,-0.04,1.06
90,-0.18,1.18,0.85,0.01,-0.05,1.06
91,-0.56,1.45,0.49,0.00,-0.05,1.07
92,-0.61,1.82,1.60,0.00,-0.05,1.05
93,-0.02,1.82,2.02,0.01,-0.04,1.07
94,0.47,1.68,1.57,0.01,-0.05,1.07
95,0.11,1.83,1.44,0.00,-0.05,1.08
96,-0.69,1.45,1.19,-0.00,-0.05,1.07
97,-0.61,1.15,1.07,-0.00,-0.04,1.08
98,-0.14,0.98,1.62,-0.01,-0.05,1.07
99,-0.49,0.96,1.15,0.00,-0.05,1.07
100,-0.78,0.38,0.43,0.00,-0.04,1.06
101,-0.73,0.27,0.60,-0.01,-0.05,1.06
102,-0.21,0.53,2.23,0.01,-0.05,1.07
103,0.15,0.69,2.23,0.01,-0.04,1.07
104,0.23,0.69,2.03,0.00,-0.05,1.06
105,0.27,0.76,2.32,0.01,-0.05,1.07
106,-0.27,0.81,2.09,0.01,-0.05,1.06
107,-0.40,0.53,1.36,0.01,-0.05,1.06
108,-0.66,0.89,1.28,0.00,-0.05,1.07
109,-0.55,1.25,1.44,0.01,-0.06,1.06
110,-0.61,1.01,0.99,0.00,-0.05,1.06
111,-0.35,1.27,1.42,0.01,-0.05,1.06
112,-0.08,1.80,1.92,0.01,-0.05,1.05
113,0.18,1.24,1.31,0.00,-0.05,1.07
114,-0.12,1.24,0.72,-0.01,-0.05,1.07
115,0.49,1.27,1.79,-0.00,-0.05,1.06
116,1.15,1.18,2.02,0.00,-0.04,1.07
117,0.73,0.61,1.40,-0.00,-0.04,1.07
118,0.18,0.60,1.24,-0.01,-0.05,1.07
119,-0.84,0.61,1.21,-0.01,-0.04,1.06
120,-0.73,0.08,1.02,-0.00,-0.04,1.06
121,0.03,0.08,1.73,-0.00,-0.05,1.06
122,0.29,0.69,2.43,0.01,-0.04,1.06
123,-0.03,0.24,1.88,0.00,-0.04,1.08
124,-0.23,-0.32,1.73,-0.00,-0.04,1.08
125,-0.06,0.15,1.91,0.00,-0.05,1.07
126,-0.31,0.03,1.19,0.01,-0.05,1.06
127,-0.21,-0.02,0.95,0.01,-0.06,1.06
128,-0.27,0.27,1.02,0.01,-0.06,1.06
129,-0.53,0.76,0.93,0.01,-0.05,1.07
130,0.20,0.29,1.24,0.01,-0.05,1.06
131,0.70,0.60,1.39,0.00,-0.05,1.07
132,0.84,0.95,1.54,0.01,-0.05,1.07
133,0.29,1.05,1.18,0.00,-0.05,1.07
134,0.35,0.70,0.73,0.01,-0.05,1.07
135,0.89,1.11,1.21,0.00,-0.05,1.07
136,0.79,1.04,1.74,0.01,-0.05,1.06
137,0.84,0.87,1.16,0.01,-0.04,1.07
138,1.13,1.01,1.66,-0.00,-0.05,1.07
139,0.90,1.21,1.77,0.01,-0.05,1.06
140,0.55,1.02,0.69,0.01,-0.04,1.06
141,0.23,0.90,0.55,-0.00,-0.05,1.07
142,-0.08,0.96,1.19,-0.00,-0.04,1.07
143,0.40,0.75,1.39,0.00,-0.04,1.07
144,0.56,0.49,1.19,-0.00,-0.05,1.07
145,0.20,0.50,1.36,-0.00,-0.05,1.07
146,0.09,0.34,1.44,0.00,-0.04,1.06
147,0.18,0.11,1.15,-0.00,-0.04,1.07
148,0.32,0.27,1.31,0.00,-0.05,1.06
149,0.38,0.40,1.53,0.00,-0.04,1.06
150,0.08,-0.21,0.92,0.00,-0.04,1.06
151,-0.18,0.17,0.90,0.01,-0.04,1.07
152,0.46,0.08,1.80,0.00,-0.04,1.07
153,0.46,0.31,1.80,0.00,-0.05,1.07
154,0.44,-0.06,1.10,-0.00,-0.05,1.08
155,0.23,-0.03,1.39,0.00,-0.06,1.07
156,0.27,-0.12,1.08,0.00,-0.05,1.07
157,0.03,-0.23,0.66,0.01,-0.05,1.08
158,0.00,-0.29,0.72,0.01,-0.05,1.06
159,0.55,0.35,1.15,0.01,-0.05,1.06
160,0.47,0.14,1.01,0.01,-0.04,1.06
161,0.61,0.08,0.76,0.00,-0.05,1.06
162,0.17,0.87,1.04,0.00,-0.05,1.07
163,-0.20,0.60,1.21,0.00,-0.05,1.07
164,0.29,0.23,0.98,0.00,-0.04,1.07
165,0.43,0.27,1.28,-0.00,-0.06,1.07
166,0.35,0.41,1.47,0.00,-0.05,1.06
167,0.52,0.11,0.87,0.01,-0.04,1.06
168,0.70,0.14,0.99,0.00,-0.04,1.06
169,0.49,0.31,1.31,0.01,-0.04,1.07
170,0.24,0.11,0.78,0.00,-0.04,1.07
171,0.27,-0.40,0.46,-0.00,-0.04,1.07
172,0.27,-0.52,1.16,0.00,-0.05,1.06
173,0.03,-0.06,0.78,0.01,-0.04,1.06
174,-0.53,-0.29,0.05,0.00,-0.05,1.07
175,-0.14,-0.09,0.79,0.01,-0.05,1.07
176,0.66,0.14,1.50,0.01,-0.05,1.06
177,0.66,0.02,0.90,0.01,-0.05,1.06
178,0.41,-0.08,0.55,0.00,-0.05,1.07
179,0.32,0.26,0.63,-0.00,-0.04,1.06
180,0.23,0.02,1.04,0.00,-0.04,1.06
181,0.56,-0.44,1.31,0.00,-0.04,1.06
182,0.50,-0.31,1.63,0.00,-0.05,1.07
183,0.23,-0.12,1.08,0.00,-0.04,1.07
184,-0.44,-0.60,0.43,0.00,-0.04,1.07
185,-0.61,-0.40,0.87,0.00,-0.05,1.07
186,-0.49,-0.05,1.50,0.01,-0.05,1.06
187,-0.49,-0.27,0.82,0.00,-0.05,1.06
188,-0.53,-0.09,0.66,0.01,-0.05,1.06
189,-0.55,0.26,1.13,0.01,-0.05,1.06
190,-0.31,0.40,1.66,0.01,-0.04,1.06
191,0.24,0.03,1.19,0.01,-0.05,1.07
192,0.46,0.52,1.57,0.01,-0.04,1.06
193,0.38,0.90,1.57,0.02,-0.04,1.06
194,-0.11,0.43,0.75,0.01,-0.04,1.07
195,-0.15,0.92,0.52,0.00,-0.05,1.07
196,-0.03,1.37,1.05,0.01,-0.05,1.06
197,0.11,1.18,0.55,0.00,-0.04,1.07
198,0.29,1.19,0.40,-0.00,-0.05,1.07
199,0.27,1.44,1.01,0.00,-0.05,1.07
200,0.56,0.78,1.42,0.00,-0.04,1.06
201,0.95,0.76,1.18,-0.00,-0.04,1.08
202,0.70,0.70,1.13,-0.01,-0.05,1.08
203,0.20,0.56,1.30,-0.00,-0.04,1.07
204,-0.21,0.02,0.84,0.00,-0.04,1.07
205,-0.50,0.02,0.49,-0.00,-0.05,1.06
206,-0.37,0.56,1.11,0.00,-0.05,1.07
207,-0.29,0.00,0.70,0.00,-0.05,1.07
208,-0.26,-0.02,0.60,-0.00,-0.05,1.07
209,-0.63,0.15,1.02,0.00,-0.05,1.06
210,-0.41,0.20,1.25,0.00,-0.04,1.07
211,-0.18,0.06,0.96,0.01,-0.05,1.07
212,-0.41,0.35,0.96,0.01,-0.05,1.06
213,-0.37,0.38,1.13,0.01,-0.05,1.07
214,0.23,0.63,1.50,0.01,-0.04,1.06
215,0.66,0.37,1.74,0.01,-0.05,1.07
216,0.38,0.58,1.88,0.01,-0.05,1.06
217,0.37,0.34,1.45,0.00,-0.04,1.07
218,0.60,0.00,1.51,0.00,-0.04,1.07
219,0.35,0.76,1.82,0.00,-0.04,1.06
220,-0.12,1.16,1.54,0.00,-0.04,1.06
221,-0.64,0.53,0.76,0.01,-0.05,1.07
222,-0.55,0.47,1.15,0.00,-0.05,1.07
223,-0.37,0.41,1.69,0.00,-0.05,1.07
224,0.00,0.00,1.39,0.00,-0.05,1.08
225,-0.32,0.21,0.98,0.00,-0.05,1.07
226,-0.72,0.50,0.89,0.00,-0.04,1.07
227,-0.49,0.20,0.96,-0.00,-0.05,1.07
228,0.24,-0.29,1.08,0.01,-0.06,1.06
229,0.27,0.47,1.39,0.00,-0.05,1.06
230,0.34,0.49,1.62,0.01,-0.04,1.06
231,0.11,0.61,1.44,0.00,-0.04,1.05
232,-0.05,0.98,1.50,0.01,-0.05,1.06
233,0.09,1.36,1.73,0.00,-0.05,1.06
234,-0.03,0.92,1.33,0.00,-0.05,1.07
235,0.03,0.60,1.04,-0.01,-0.05,1.07
236,-0.38,0.64,0.92,-0.00,-0.05,1.07
237,-0.63,0.35,0.61,-0.00,-0.04,1.06
238,-0.70,0.35,0.14,0.00,-0.05,1.07
239,-0.37,0.60,0.35,0.00,-0.05,1.07
240,-0.47,0.63,0.67,0.00,-0.04,1.07
241,-0.06,0.46,0.92,-0.00,-0.05,1.06
242,0.29,0.67,1.40,0.00,-0.05,1.06
243,0.41,0.66,2.20,0.00,-0.05,1.06
244,0.44,0.37,1.48,0.01,-0.04,1.06
245,0.21,0.14,1.25,-0.00,-0.04,1.07
246,0.15,0.34,1.27,-0.00,-0.05,1.06
247,-0.06,0.40,1.65,0.00,-0.04,1.07
248,-0.11,0.23,1.13,0.01,-0.05,1.06
249,-0.08,0.44,1.08,0.00,-0.05,1.06
250,-0.26,0.79,1.05,0.00,-0.05,1.07
251,-0.60,0.52,0.41,0.01,-0.05,1.06
252,-0.44,0.40,0.53,0.01,-0.05,1.07
253,0.09,0.47,0.75,0.00,-0.05,1.07
254,0.23,0.31,0.93,-0.00,-0.05,1.07
255,0.17,0.44,1.22,-0.00,-0.05,1.07
256,0.12,0.56,1.40,0.00,-0.04,1.07
257,0.49,0.21,2.00,0.01,-0.05,1.06
258,0.95,-0.05,1.60,0.01,-0.05,1.07
259,0.87,0.47,1.30,0.00,-0.05,1.07
260,0.20,0.50,1.25,0.01,-0.05,1.06
261,0.03,0.37,0.95,0.01,-0.04,1.06
262,0.40,0.35,0.75,0.00,-0.05,1.07
263,-0.03,0.64,0.93,0.00,-0.05,1.07
264,-0.06,0.32,0.67,0.00,-0.04,1.07
265,0.24,0.23,0.79,0.00,-0.05,1.07
266,0.21,0.44,1.28,-0.01,-0.04,1.07
267,0.34,0.31,1.50,0.00,-0.05,1.06
268,0.41,0.31,1.18,0.01,-0.05,1.07
269,0.81,0.43,1.56,0.01,-0.05,1.06
270,0.55,0.89,1.85,-0.00,-0.05,1.07
271,0.67,0.47,1.48,-0.00,-0.05,1.07
272,0.43,0.58,1.48,0.00,-0.05,1.07
273,0.29,0.47,1.83,-0.01,-0.04,1.07
274,0.08,-0.34,1.51,-0.00,-0.04,1.06
275,-0.41,-0.32,0.58,-0.00,-0.04,1.07
276,-0.47,-0.37,0.98,0.00,-0.05,1.07
277,-0.08,-0.12,1.16,0.00,-0.05,1.06
278,0.32,-0.20,0.81,0.01,-0.05,1.07
279,0.55,0.02,1.04,0.01,-0.06,1.06
280,0.58,0.44,1.28,0.01,-0.05,1.07
281,0.52,0.26,0.63,0.01,-0.04,1.06
282,0.43,0.35,1.13,0.00,-0.05,1.07
283,0.52,0.55,1.44,0.00,-0.04,1.08
284,0.76,0.08,1.45,0.00,-0.05,1.08
285,0.31,-0.20,1.01,0.00,-0.04,1.07
286,-0.49,0.06,0.92,-0.00,-0.04,1.07
287,-0.79,-0.09,0.90,0.00,-0.04,1.07
288,-0.40,-0.60,0.79,0.01,-0.05,1.06
289,-0.06,-0.24,1.25,0.00,-0.05,1.07
290,0.03,0.31,1.50,0.02,-0.05,1.06
291,0.03,0.11,1.33,0.00,-0.05,1.06
292,0.05,0.40,1.07,0.01,-0.05,1.07
293,0.08,0.60,0.87,0.01,-0.06,1.06
294,-0.02,0.84,0.66,0.01,-0.05,1.07
295,-0.05,0.50,0.40,0.00,-0.05,1.07
296,0.55,0.79,1.31,0.01,-0.05,1.07
297,0.35,0.70,1.31,0.00,-0.05,1.07
298,0.03,0.98,0.14,-0.00,-0.04,1.07
299,0.35,0.67,0.73,-0.00,-0.05,1.07
300,0.47,0.93,1.53,0.00,-0.05,1.06
301,0.52,0.84,1.31,-0.00,-0.04,1.07
302,0.43,0.53,0.60,0.00,-0.04,1.07
303,0.17,0.43,1.13,0.00,-0.05,1.06
304,0.05,0.24,0.92,-0.00,-0.04,1.08
305,-0.41,0.11,0.46,-0.00,-0.04,1.07
306,-0.43,-0.18,0.73,-0.00,-0.05,1.07
307,-0.32,0.05,1.07,0.00,-0.05,1.06
308,-0.44,-0.09,0.69,0.01,-0.05,1.06
309,-0.06,-0.06,1.16,-0.00,-0.05,1.06
310,0.24,0.44,1.68,0.01,-0.05,1.07
311,0.38,0.35,1.68,0.00,-0.05,1.06
312,0.32,0.20,1.07,0.01,-0.05,1.07
313,0.09,-0.03,1.21,0.00,-0.05,1.07
314,0.12,0.00,1.31,0.01,-0.05,1.07
315,-0.18,0.02,0.66,0.00,-0.05,1.07
316,-0.11,0.60,0.92,0.01,-0.05,1.07
317,-0.03,0.82,1.10,0.01,-0.05,1.06
318,0.03,0.64,0.73,0.00,-0.04,1.07
319,-0.14,0.49,0.79,0.01,-0.05,1.06
320,-0.08,0.69,0.63,0.00,-0.05,1.07
321,-0.41,0.70,0.58,-0.01,-0.04,1.07
322,0.00,0.12,0.98,0.00,-0.05,1.07
323,0.87,0.60,1.71,-0.00,-0.04,1.07
324,1.02,0.50,2.06,-0.01,-0.04,1.06
325,1.15,0.12,1.47,-0.00,-0.04,1.06
326,0.60,-0.14,1.50,0.01,-0.05,1.07
327,0.09,-0.02,1.65,0.00,-0.05,1.07
328,-0.11,-0.20,1.31,0.00,-0.04,1.07
329,-0.15,-0.34,1.11,0.01,-0.05,1.07
330,-0.18,0.17,1.25,0.00,-0.05,1.06
331,-0.05,0.35,1.42,0.01,-0.04,1.06
332,0.18,-0.12,1.36,0.01,-0.05,1.06
333,-0.11,0.17,1.27,0.01,-0.05,1.07
334,-0.29,0.34,1.18,0.01,-0.04,1.06
335,-0.20,0.23,0.92,0.01,-0.05,1.07
336,0.35,0.24,1.39,0.01,-0.05,1.06
337,0.24,0.76,1.44,0.01,-0.05,1.07
338,0.38,0.85,0.82,0.00,-0.05,1.06
339,0.35,0.81,0.76,0.00,-0.05,1.07
340,0.08,0.90,0.79,0.00,-0.05,1.06
341,0.11,0.73,0.63,0.01,-0.05,1.06
342,0.20,1.01,0.38,0.00,-0.05,1.07
343,0.17,0.79,0.50,0.01,-0.05,1.07
344,-0.14,0.76,0.75,-0.00,-0.05,1.07
345,-0.29,0.24,0.29,-0.01,-0.04,1.07
346,-0.21,-0.18,0.58,-0.00,-0.05,1.07
347,0.21,0.00,1.40,-0.00,-0.04,1.07
348,0.75,0.15,1.85,0.00,-0.04,1.06
349,0.60,0.21,1.50,0.00,-0.05,1.07
350,0.35,0.32,1.60,0.00,-0.05,1.06
351,0.02,0.38,1.15,0.01,-0.05,1.06
352,-0.44,-0.11,0.63,0.00,-0.05,1.08
353,-0.27,0.06,1.07,0.00,-0.05,1.06
354,0.14,0.52,1.01,0.01,-0.05,1.06
355,0.34,0.34,0.98,0.01,-0.04,1.07
356,0.35,-0.06,0.96,0.00,-0.05,1.07
357,0.55,0.35,1.56,0.01,-0.05,1.07
358,0.24,0.11,1.25,0.01,-0.05,1.07
359,0.18,-0.02,0.56,0.01,-0.05,1.06
360,0.06,0.18,0.95,0.00,-0.05,1.07
361,0.00,0.41,0.93,0.01,-0.04,1.06
362,0.06,0.37,0.78,0.01,-0.04,1.06
363,0.11,0.63,0.73,-0.00,-0.05,1.07
364,-0.14,0.89,0.60,0.00,-0.05,1.07
365,-0.61,0.50,0.15,0.00,-0.04,1.07
366,-0.55,0.27,0.15,-0.00,-0.05,1.08
367,-0.41,0.34,0.98,-0.00,-0.05,1.07
368,-0.12,0.41,0.70,0.00,-0.05,1.06
369,-0.20,0.35,0.60,0.00,-0.05,1.07
370,-0.47,0.34,0.37,-0.00,-0.05,1.06
371,-0.14,0.24,1.11,0.00,-0.05,1.07
372,0.76,0.18,1.47,0.01,-0.05,1.07
373,0.76,0.40,1.39,0.00,-0.05,1.07
374,0.50,0.50,1.42,0.00,-0.05,1.07
375,0.46,0.12,1.19,0.00,-0.05,1.08
376,0.09,0.31,1.05,0.00,-0.05,1.07
377,0.06,0.44,1.18,0.01,-0.05,1.05
378,0.32,0.52,1.16,0.01,-0.05,1.07
379,0.56,0.24,1.25,-0.00,-0.05,1.07
380,0.35,0.34,1.13,0.00,-0.05,1.06
381,-0.26,0.44,1.11,-0.01,-0.05,1.07
382,-0.53,-0.09,0.41,0.00,-0.04,1.07
383,0.09,0.34,1.02,0.01,-0.05,1.07
384,0.03,-0.05,1.22,0.01,-0.05,1.07
385,-0.27,-0.06,0.66,0.00,-0.04,1.07
386,0.00,0.00,0.81,0.01,-0.06,1.06
387,-0.06,0.37,1.16,0.02,-0.06,1.06
388,-0.11,0.73,1.01,0.00,-0.05,1.07
389,0.18,0.02,0.49,0.00,-0.05,1.07
390,0.09,0.05,0.61,0.00,-0.05,1.07
391,-0.35,0.15,0.73,-0.00,-0.04,1.07
392,-0.31,-0.15,0.95,0.00,-0.04,1.07
393,-0.38,0.00,0.81,-0.00,-0.05,1.06
394,-0.41,0.37,1.16,-0.00,-0.04,1.06
395,-0.34,0.15,1.24,-0.00,-0.05,1.06
396,-0.34,0.24,0.90,0.00,-0.05,1.06
397,-0.61,0.27,1.07,0.00,-0.05,1.07
398,-0.81,0.05,0.72,-0.00,-0.06,1.07
399,-1.02,0.02,0.11,0.01,-0.06,1.07
400,-0.82,0.53,0.56,0.01,-0.05,1.07
401,-0.12,0.58,1.19,0.01,-0.05,1.06
402,0.27,0.63,0.64,0.00,-0.05,1.06
403,0.02,0.73,0.02,0.00,-0.05,1.07
404,-0.46,0.96,0.46,0.00,-0.05,1.06
405,-0.29,0.44,0.53,0.01,-0.05,1.06
406,0.46,0.69,0.76,0.00,-0.05,1.06
407,0.27,1.02,0.84,0.00,-0.05,1.07
408,0.06,1.04,0.96,0.01,-0.04,1.07
409,0.43,0.89,0.92,0.00,-0.04,1.06
410,0.70,0.67,1.16,-0.00,-0.05,1.08
411,0.79,0.76,1.33,-0.00,-0.04,1.07
412,0.66,0.47,1.24,-0.01,-0.05,1.07
413,0.55,0.08,1.37,0.00,-0.05,1.07
414,0.00,-0.02,1.34,-0.00,-0.05,1.07
415,-0.46,0.17,0.66,-0.00,-0.04,1.07
416,-0.17,0.21,0.58,0.00,-0.05,1.08
417,0.09,0.34,1.16,0.00,-0.05,1.06
418,0.73,0.14,1.83,0.00,-0.04,1.07
419,0.84,0.31,1.33,0.00,-0.05,1.08
420,0.31,0.44,1.28,0.00,-0.05,1.07
421,-0.24,0.26,1.25,0.00,-0.05,1.07
422,-0.20,0.24,1.05,0.01,-0.05,1.06
423,0.14,0.29,1.44,0.01,-0.05,1.06
424,0.46,0.61,1.65,0.01,-0.05,1.06
425,0.38,0.66,1.39,-0.00,-0.06,1.06
426,0.26,0.70,0.60,-0.00,-0.05,1.07
427,0.11,0.38,0.72,-0.00,-0.05,1.07
428,-0.37,0.12,0.64,0.00,-0.04,1.06
429,-0.27,0.40,0.55,0.00,-0.03,1.07
430,0.00,0.41,0.58,-0.00,-0.04,1.07
431,-0.02,0.64,1.08,0.00,-0.05,1.07
432,0.14,-0.08,1.33,0.00,-0.04,1.07
433,0.06,0.32,1.07,0.00,-0.04,1.07
434,0.17,0.29,1.40,-0.00,-0.04,1.06
435,0.29,0.08,1.92,0.00,-0.05,1.08
436,0.41,-0.18,1.56,0.00,-0.05,1.07
437,0.08,-0.03,1.22,0.01,-0.05,1.07
438,-0.41,0.05,1.10,0.00,-0.05,1.07
439,-0.14,-0.09,1.27,0.01,-0.05,1.06
440,-0.12,0.21,1.25,0.01,-0.05,1.06
441,0.20,0.37,1.65,0.01,-0.05,1.06
442,0.44,0.79,1.60,0.01,-0.06,1.07
443,0.53,0.87,1.25,0.01,-0.06,1.06
444,0.55,0.90,0.93,0.01,-0.05,1.06
445,0.46,1.05,0.72,0.00,-0.05,1.07
446,0.47,0.66,0.73,0.00,-0.05,1.08
447,0.56,0.89,1.18,0.00,-0.05,1.06
448,1.05,0.89,1.63,0.00,-0.04,1.07
449,0.90,0.70,1.11,-0.01,-0.04,1.08
450,0.38,0.60,0.87,-0.00,-0.04,1.06
451,0.11,0.85,1.19,0.00,-0.04,1.07
452,-0.38,0.85,0.69,-0.00,-0.05,1.07
453,-0.35,0.11,0.50,0.00,-0.05,1.07
454,-0.31,0.26,0.82,0.00,-0.06,1.08
455,0.11,0.17,1.11,-0.00,-0.05,1.07
456,-0.03,-0.24,0.95,0.00,-0.04,1.07
457,0.21,-0.02,0.84,0.00,-0.05,1.06
458,0.40,0.03,1.19,0.00,-0.05,1.06
459,0.61,0.18,1.50,0.01,-0.05,1.06
460,1.11,0.29,1.74,0.00,-0.05,1.07
461,1.02,0.38,1.59,0.00,-0.05,1.07
462,0.21,0.52,0.84,0.00,-0.05,1.06
463,-0.09,0.12,0.29,0.00,-0.05,1.07
464,-0.34,0.41,0.35,0.01,-0.05,1.07
465,-0.52,0.40,0.34,0.01,-0.04,1.06
466,-0.27,0.24,0.20,0.01,-0.04,1.07
467,-0.09,0.31,0.55,0.01,-0.05,1.06
468,-0.08,0.32,1.02,0.01,-0.04,1.06
469,-0.09,0.60,1.01,0.01,-0.05,1.06
470,0.31,0.37,0.98,-0.00,-0.05,1.06
471,-0.18,0.37,0.84,-0.00,-0.06,1.07
472,-0.23,0.40,0.66,0.00,-0.05,1.07
473,0.08,0.41,0.56,-0.00,-0.05,1.06
474,0.38,0.67,1.07,-0.00,-0.05,1.07
475,0.50,0.49,1.21,0.01,-0.05,1.06
476,0.26,0.52,0.87,-0.00,-0.04,1.06
477,0.03,0.24,0.75,0.00,-0.05,1.06
478,-0.06,0.23,1.02,-0.00,-0.05,1.07
479,0.24,-0.21,1.10,0.00,-0.05,1.07
480,0.12,-0.14,1.30,0.01,-0.04,1.05
481,0.03,0.37,1.57,0.01,-0.04,1.06
482,0.29,0.40,1.22,0.01,-0.05,1.07
483,0.15,0.53,1.01,0.00,-0.05,1.06
484,-0.23,0.75,0.89,0.00,-0.06,1.06
485,-0.31,0.60,0.73,-0.00,-0.04,1.07
486,-0.12,0.05,0.85,-0.00,-0.05,1.07
487,0.29,0.37,0.78,-0.00,-0.05,1.06
488,0.12,0.32,0.79,0.01,-0.05,1.07
489,0.14,0.03,0.85,0.01,-0.04,1.07
490,0.18,0.26,0.69,-0.00,-0.05,1.06
491,0.21,0.60,1.18,0.01,-0.04,1.06
492,0.61,0.27,1.71,-0.00,-0.04,1.07
493,0.70,0.08,1.42,-0.00,-0.05,1.07
494,0.78,0.27,1.16,0.00,-0.05,1.07
495,0.46,0.34,1.50,0.00,-0.05,1.07
496,0.15,-0.20,1.28,-0.00,-0.05,1.06
497,0.26,-0.02,1.57,0.00,-0.05,1.06
498,0.41,0.31,1.73,0.00,-0.05,1.07
499,0.05,0.29,1.28,0.00,-0.05,1.07
500,0.29,0.15,0.82,0.00,-0.06,1.08
501,0.17,0.08,0.69,0.01,-0.05,1.07
502,0.00,0.11,0.96,0.00,-0.04,1.06
503,0.08,0.08,0.99,0.01,-0.05,1.07
504,0.53,0.29,0.96,0.00,-0.05,1.06
505,0.46,0.76,1.07,0.00,-0.06,1.06
506,0.26,0.66,0.87,-0.00,-0.05,1.07
507,0.50,0.70,0.90,0.00,-0.05,1.08
508,0.32,0.44,1.07,-0.00,-0.04,1.07
509,-0.02,0.23,0.87,-0.01,-0.04,1.08
510,-0.41,-0.11,0.34,-0.00,-0.04,1.07
511,-0.47,-0.15,1.05,-0.00,-0.04,1.07
512,0.27,-0.52,1.66,-0.00,-0.05,1.08
513,0.35,-0.32,1.42,-0.01,-0.05,1.07
514,-0.27,-0.67,1.11,-0.00,-0.05,1.07
515,-0.69,-0.63,1.11,0.01,-0.05,1.06
516,-0.05,-0.17,1.22,0.01,-0.05,1.06
517,0.26,0.35,1.40,0.02,-0.05,1.07
518,0.24,0.55,1.22,0.01,-0.05,1.07
519,0.18,0.41,0.99,0.01,-0.05,1.07
520,0.38,0.56,0.84,0.01,-0.05,1.07
521,0.17,0.27,0.92,0.01,-0.05,1.06
522,-0.32,0.35,0.37,0.00,-0.06,1.07
523,-0.49,0.55,-0.17,0.01,-0.05,1.06
524,-0.31,0.63,0.69,0.01,-0.05,1.06
525,0.03,1.07,1.07,0.01,-0.04,1.06
526,0.32,0.93,0.78,0.01,-0.04,1.07
527,0.31,0.87,0.85,-0.00,-0.05,1.08
528,-0.21,0.67,0.81,-0.00,-0.04,1.07
529,-0.06,0.41,0.82,-0.00,-0.05,1.07
530,0.58,0.38,0.82,0.00,-0.05,1.08
531,0.61,0.35,1.25,-0.00,-0.05,1.07
532,0.29,0.41,1.18,0.00,-0.04,1.07
533,0.21,0.11,1.18,-0.00,-0.05,1.07
534,0.38,0.43,1.59,-0.00,-0.05,1.07
535,0.60,0.40,1.54,0.00,-0.05,1.07
536,0.17,0.06,0.96,0.01,-0.05,1.07
537,-0.06,0.15,0.96,0.01,-0.05,1.07
538,-0.11,0.11,1.69,0.00,-0.05,1.06
539,0.20,-0.27,1.62,0.00,-0.05,1.06
540,0.02,-0.18,1.27,0.00,-0.05,1.07
541,-0.17,0.11,1.33,0.00,-0.05,1.07
542,-0.34,0.37,0.85,0.01,-0.05,1.07
543,-0.02,0.31,0.85,-0.00,-0.05,1.07
544,0.17,0.66,1.30,0.00,-0.06,1.07
545,0.12,0.55,1.24,0.01,-0.04,1.08
546,0.44,0.24,1.19,-0.00,-0.05,1.07
547,0.61,0.38,1.37,0.00,-0.05,1.07
548,0.41,0.31,0.96,-0.00,-0.05,1.07
549,-0.03,0.02,0.96,-0.00,-0.05,1.07
550,-0.02,-0.08,1.19,0.00,-0.05,1.07
551,0.43,0.05,1.76,0.00,-0.05,1.06
552,0.69,-0.17,1.82,0.02,-0.05,1.05
553,0.55,-0.09,1.56,0.00,-0.05,1.07
554,0.06,0.38,1.54,0.00,-0.05,1.07
555,-0.21,0.37,1.44,0.01,-0.05,1.07
556,0.00,0.00,1.05,0.00,-0.05,1.07
557,0.06,0.11,1.10,0.01,-0.05,1.07
558,0.03,0.35,1.18,0.02,-0.05,1.06
559,0.29,0.00,0.89,0.00,-0.05,1.07
560,0.47,0.26,0.95,0.00,-0.05,1.07
561,0.08,0.41,0.70,0.01,-0.05,1.05
562,-0.18,0.55,0.66,0.01,-0.05,1.07
563,0.44,0.09,0.84,0.01,-0.05,1.07
564,0.56,0.92,0.98,0.00,-0.05,1.06
565,0.49,0.64,1.10,-0.00,-0.04,1.06
566,0.75,0.72,1.15,0.00,-0.05,1.06
567,0.60,0.53,1.28,0.00,-0.05,1.07
568,0.23,0.55,0.93,-0.00,-0.05,1.07
569,0.02,-0.03,0.55,0.00,-0.05,1.07
570,-0.21,-0.32,0.29,0.00,-0.05,1.07
571,-0.44,0.08,0.31,0.01,-0.05,1.06
572,-0.99,0.44,-0.02,0.00,-0.04,1.06
573,-0.53,0.05,0.24,0.00,-0.05,1.07
574,-0.15,0.05,0.31,0.00,-0.05,1.07
575,-0.05,-0.02,0.84,0.00,-0.05,1.06
576,0.40,-0.50,1.22,0.00,-0.05,1.06
577,0.72,-0.03,1.56,0.00,-0.05,1.07
578,0.52,0.27,1.44,0.01,-0.05,1.05
579,0.47,0.44,1.21,0.01,-0.05,1.06
580,0.15,0.34,0.52,0.01,-0.05,1.08
581,-0.17,0.32,0.58,0.00,-0.05,1.07
582,-0.32,0.21,0.26,0.01,-0.05,1.07
583,-0.38,0.47,-0.02,0.01,-0.05,1.07
584,-0.24,0.23,0.23,0.00,-0.05,1.07
585,-0.09,0.40,0.95,0.01,-0.05,1.07
586,0.23,0.46,0.98,0.00,-0.04,1.06
587,0.06,0.43,0.72,0.01,-0.05,1.07
588,-0.08,0.50,1.08,0.01,-0.05,1.07
589,-0.02,0.46,0.75,0.01,-0.05,1.07
590,0.05,0.50,0.64,0.01,-0.05,1.06
591,-0.26,0.81,0.79,0.01,-0.05,1.07
592,-0.41,0.61,0.87,0.00,-0.04,1.07
593,-0.27,0.66,0.98,0.00,-0.05,1.07
594,0.05,0.47,1.02,0.00,-0.05,1.06
595,0.08,0.37,1.19,0.00,-0.05,1.07
596,0.49,0.24,1.11,0.00,-0.05,1.07
597,0.53,0.12,1.28,0.01,-0.05,1.07
598,0.52,-0.05,1.65,0.00,-0.05,1.07
599,0.35,-0.03,1.15,0.00,-0.05,1.07
600,0.00,0.05,0.66,0.00,-0.05,1.07
601,0.02,0.23,1.02,0.01,-0.05,1.07
602,0.05,0.29,1.28,0.01,-0.05,1.06
603,0.12,0.14,0.90,0.01,-0.05,1.07
604,-0.53,0.49,0.93,0.01,-0.05,1.06
605,-0.75,0.21,0.85,0.01,-0.05,1.08
606,-0.17,0.12,1.24,0.01,-0.05,1.07
607,0.29,0.15,1.13,0.01,-0.05,1.06
608,0.05,0.46,0.85,0.00,-0.05,1.06
609,-0.37,0.29,0.37,0.01,-0.05,1.06
610,-0.49,0.44,0.35,0.01,-0.05,1.07
611,-0.21,0.49,0.37,0.00,-0.06,1.06
612,-0.23,0.56,0.53,0.01,-0.05,1.06
613,0.05,0.09,0.40,0.01,-0.04,1.07
614,0.35,0.63,0.75,0.00,-0.05,1.06
615,-0.02,0.38,0.93,0.00,-0.04,1.06
616,-0.12,0.56,0.56,-0.00,-0.04,1.07
617,-0.26,0.52,0.72,-0.00,-0.05,1.07
618,0.34,0.47,1.45,0.00,-0.05,1.07
619,0.53,0.34,1.04,0.01,-0.05,1.06
620,0.23,0.55,0.84,0.00,-0.05,1.07
621,-0.21,0.78,0.76,-0.00,-0.05,1.07
622,-0.06,0.67,0.69,0.01,-0.05,1.07
623,0.44,0.44,1.04,0.00,-0.05,1.07
624,0.55,0.64,1.48,0.00,-0.05,1.07
625,0.35,0.64,1.13,0.01,-0.05,1.08
626,0.18,-0.03,1.19,-0.00,-0.05,1.07
627,0.08,0.21,1.40,0.00,-0.05,1.07
628,-0.05,0.27,1.10,0.00,-0.05,1.07
629,0.05,0.05,0.79,0.00,-0.04,1.07
630,0.09,0.00,0.49,-0.00,-0.05,1.07
631,0.24,-0.23,0.44,0.00,-0.05,1.07
632,-0.06,-0.03,1.08,-0.01,-0.04,1.07
633,-0.23,-0.34,1.21,-0.00,-0.05,1.07
634,0.00,-0.05,1.60,0.01,-0.05,1.07
635,-0.17,0.08,1.62,0.01,-0.05,1.07
636,-0.70,-0.37,0.73,0.00,-0.05,1.07
637,-0.67,-0.47,0.60,0.00,-0.05,1.08
638,-0.72,-0.24,0.73,0.01,-0.05,1.07
639,-0.21,-0.08,0.56,0.01,-0.05,1.06
640,0.06,0.08,0.24,0.01,-0.05,1.06
641,0.24,0.32,1.13,0.01,-0.05,1.06
642,0.61,0.50,1.40,0.01,-0.05,1.07
643,0.23,0.11,1.05,0.01,-0.05,1.06
644,0.31,0.43,1.11,0.01,-0.05,1.07
645,0.24,1.05,0.99,0.02,-0.04,1.07
646,0.27,0.89,0.87,0.01,-0.05,1.07
647,0.23,1.10,0.93,0.02,-0.05,1.07
648,0.05,1.31,0.90,0.00,-0.06,1.06
649,0.09,1.54,0.95,0.01,-0.05,1.07
650,0.35,0.84,1.07,-0.01,-0.05,1.06
651,0.49,1.01,0.95,-0.00,-0.05,1.07
652,-0.21,0.76,0.84,-0.00,-0.05,1.07
653,-0.43,0.05,0.76,-0.01,-0.04,1.08
654,-0.26,0.05,0.70,-0.00,-0.05,1.07
655,-0.02,0.38,1.01,0.00,-0.04,1.06
656,0.06,0.35,0.90,-0.01,-0.05,1.06
657,-0.11,0.08,0.92,0.01,-0.05,1.07
658,-0.27,0.20,0.95,0.01,-0.05,1.07
659,-0.26,0.06,1.40,0.01,-0.05,1.07
660,0.15,0.21,1.28,-0.00,-0.05,1.07
661,0.37,0.26,1.39,0.00,-0.05,1.07
662,0.06,0.27,1.18,0.01,-0.05,1.07
663,0.06,0.09,0.85,0.01,-0.06,1.06
664,0.08,0.24,0.76,0.01,-0.06,1.06
665,-0.09,0.47,0.92,0.01,-0.05,1.07
666,-0.15,0.11,0.84,0.00,-0.05,1.07
667,0.58,0.18,1.15,0.00,-0.05,1.07
668,0.34,0.47,1.37,0.01,-0.05,1.07
669,-0.05,0.27,0.96,0.01,-0.04,1.07
670,-0.20,0.31,0.81,0.01,-0.05,1.07
671,-0.09,0.55,1.10,0.01,-0.05,1.07
672,-0.32,0.78,0.96,0.01,-0.04,1.06
673,0.02,0.47,0.69,0.01,-0.05,1.07
674,0.06,0.40,1.04,-0.00,-0.05,1.07
675,0.32,0.76,1.76,0.02,-0.05,1.06
676,0.52,0.06,2.00,0.01,-0.05,1.07
677,0.78,0.60,1.65,0.00,-0.05,1.07
678,0.11,0.14,1.30,0.00,-0.05,1.07
679,-0.50,0.23,0.96,0.00,-0.05,1.06
680,-0.78,0.05,0.56,0.00,-0.05,1.07
681,-0.50,0.27,0.66,0.01,-0.05,1.07
682,-0.67,0.37,0.79,0.00,-0.04,1.06
683,-0.69,0.26,0.23,0.01,-0.05,1.06
684,-0.67,0.21,0.31,0.01,-0.05,1.07
685,-0.55,0.66,0.82,0.01,-0.06,1.05
686,-0.24,0.47,0.55,0.00,-0.05,1.07
687,0.32,0.21,0.81,0.00,-0.05,1.07
688,0.66,0.82,1.25,0.01,-0.05,1.07
689,0.64,0.76,0.98,-0.00,-0.05,1.07
690,0.27,0.52,0.60,-0.00,-0.05,1.07
691,0.11,0.52,0.92,-0.00,-0.05,1.07
692,0.08,0.67,0.79,0.00,-0.05,1.07
693,0.15,0.20,0.34,-0.00,-0.06,1.07
694,-0.14,0.05,0.26,-0.00,-0.05,1.08
695,-0.08,0.38,0.84,-0.00,-0.05,1.07
696,0.08,0.12,0.79,0.01,-0.04,1.07
697,0.24,0.03,0.61,0.00,-0.05,1.07
698,0.20,0.29,1.21,0.01,-0.05,1.07
699,0.21,0.20,1.39,0.00,-0.04,1.06
700,0.32,0.05,0.79,0.01,-0.05,1.07
701,-0.12,0.06,0.84,0.00,-0.06,1.06
702,-0.78,0.38,0.47,0.01,-0.05,1.07
703,-0.61,0.38,0.09,0.00,-0.05,1.07
704,-0.52,0.23,0.66,0.01,-0.05,1.06
705,-0.21,0.69,1.21,0.00,-0.04,1.06
706,-0.12,0.47,0.63,0.01,-0.05,1.07
707,-0.05,0.34,0.34,-0.00,-0.05,1.07
708,-0.08,0.35,0.72,0.01,-0.05,1.07
709,-0.29,0.03,0.44,0.00,-0.05,1.07
710,-0.50,0.06,-0.03,0.00,-0.06,1.07
711,-0.35,0.20,0.21,0.00,-0.05,1.07
712,-0.20,0.34,1.21,0.00,-0.04,1.05
713,0.55,-0.06,1.39,0.00,-0.05,1.06
714,0.69,0.35,1.74,0.00,-0.06,1.07
715,0.67,0.79,1.83,0.01,-0.05,1.06
716,0.32,0.55,1.11,0.00,-0.05,1.07
717,-0.06,0.52,0.76,0.00,-0.05,1.07
718,-0.37,0.70,0.92,0.00,-0.05,1.06
719,-0.46,0.24,0.89,0.01,-0.04,1.06
720,0.05,0.09,0.75,0.01,-0.05,1.07
721,0.38,0.31,1.04,0.00,-0.05,1.07
722,0.05,0.17,1.31,0.00,-0.04,1.05
723,0.15,0.26,1.05,-0.00,-0.05,1.06
724,0.47,0.31,0.99,0.00,-0.06,1.07
725,0.41,0.17,1.04,0.00,-0.06,1.07
726,0.05,-0.18,0.75,0.01,-0.05,1.07
727,-0.08,-0.14,0.23,0.00,-0.05,1.07
728,-0.11,0.20,0.61,0.00,-0.05,1.06
729,-0.38,0.17,0.58,0.01,-0.04,1.06
730,0.15,0.02,0.31,0.01,-0.05,1.06
731,0.09,-0.06,0.56,0.00,-0.06,1.06
732,-0.43,-0.31,0.50,0.01,-0.05,1.07
733,-0.81,-0.05,0.05,0.01,-0.05,1.06
734,0.08,-0.02,0.75,0.01,-0.06,1.06
735,0.43,0.95,1.85,0.01,-0.05,1.05
736,0.56,0.66,1.13,0.01,-0.05,1.08
737,1.02,0.43,0.98,0.01,-0.06,1.08
738,0.32,0.49,1.28,0.01,-0.06,1.08
739,0.09,0.35,0.40,-0.00,-0.05,1.07
740,-0.29,0.31,0.02,0.00,-0.05,1.06
741,-0.35,0.34,0.29,0.00,-0.05,1.05
742,-0.09,0.64,0.82,0.01,-0.04,1.05
743,-0.11,1.28,0.44,0.01,-0.05,1.07
744,0.37,0.67,0.93,0.00,-0.05,1.07
745,0.18,0.78,1.08,-0.00,-0.05,1.06
746,-0.18,0.56,0.23,-0.01,-0.05,1.07
747,-0.43,-0.37,-0.03,-0.01,-0.05,1.07
748,-0.73,-0.18,0.46,-0.00,-0.05,1.06
749,-0.64,-0.26,0.23,0.01,-0.05,1.07
750,0.02,0.05,1.45,0.01,-0.06,1.07
751,0.66,0.18,1.80,0.01,-0.06,1.06
752,0.58,0.20,1.40,0.02,-0.06,1.06
753,0.03,0.03,0.84,0.02,-0.06,1.06
754,0.24,0.27,0.84,0.01,-0.06,1.06
755,0.35,0.79,1.31,0.02,-0.06,1.06
756,1.10,1.10,1.21,0.01,-0.04,1.06
757,0.96,1.07,1.01,0.00,-0.06,1.07
758,0.76,1.25,1.22,0.00,-0.05,1.07
759,0.52,0.79,0.72,-0.00,-0.04,1.08
760,0.38,0.17,1.05,-0.01,-0.05,1.08
761,0.47,0.18,1.91,-0.01,-0.04,1.07
762,0.58,0.41,1.82,-0.01,-0.05,1.07
763,0.21,0.09,0.96,-0.00,-0.05,1.07
764,-0.76,-0.56,1.27,-0.01,-0.05,1.07
765,-0.76,0.21,1.44,-0.00,-0.05,1.06
766,-0.44,0.02,0.90,-0.00,-0.05,1.07
767,-0.82,0.05,0.89,0.00,-0.05,1.07
