,gyro_x,gyro_y,gyro_z,acce_x,acce_y,acce_z
0,0.55,-0.84,0.02,0.02,-0.09,1.07
1,0.06,-0.79,0.32,0.03,-0.10,1.06
2,-0.61,0.21,0.24,0.03,-0.10,1.06
3,0.18,1.34,-0.73,0.04,-0.10,1.06
4,-0.31,-1.28,-0.08,0.02,-0.09,1.08
5,1.66,2.66,-1.08,0.02,-0.10,1.05
6,4.37,1.07,-1.62,0.02,-0.10,1.09
7,2.43,-2.18,0.89,0.01,-0.07,1.07
8,-0.61,-1.95,0.98,0.01,-0.10,1.05
9,-3.10,1.27,-1.62,0.02,-0.10,1.05
10,-0.67,3.02,-2.37,0.02,-0.11,1.06
11,1.37,3.13,-0.50,0.01,-0.10,1.06
12,1.36,1.36,0.70,0.01,-0.10,1.06
13,-1.01,1.05,-0.52,0.01,-0.11,1.04
14,-2.31,2.11,-2.55,0.01,-0.12,1.09
15,-1.15,2.61,-3.73,0.01,-0.10,1.09
16,4.26,4.55,-3.25,0.01,-0.10,1.07
17,3.30,-0.56,-1.04,-0.01,-0.09,1.10
18,5.02,-2.27,0.69,-0.00,-0.10,1.02
19,1.07,-3.66,-0.96,-0.00,-0.13,1.05
20,-2.93,0.27,-1.91,0.01,-0.09,1.07
21,-0.66,6.02,-2.85,0.02,-0.11,1.05
22,0.47,-0.64,-0.14,0.01,-0.11,1.09
23,1.25,-3.27,-1.60,-0.00,-0.11,1.08
24,1.83,-2.31,-0.81,0.03,-0.11,1.06
25,0.08,-0.32,-0.53,0.02,-0.11,1.05
26,-0.96,-0.72,-1.60,0.03,-0.11,1.06
27,-2.11,-1.27,-4.12,0.02,-0.09,1.05
28,2.11,-0.75,-0.05,0.03,-0.09,1.04
29,4.17,-0.53,1.27,0.03,-0.10,1.06
30,2.52,0.35,0.55,0.03,-0.10,1.05
31,0.17,0.82,-0.79,0.03,-0.10,1.05
32,0.29,0.60,-0.82,0.02,-0.10,1.06
33,2.50,0.11,0.43,0.02,-0.10,1.07
34,0.24,-0.11,-2.52,0.02,-0.08,1.06
35,-0.49,-0.26,-2.18,0.03,-0.09,1.07
36,0.85,0.09,-0.99,0.03,-0.10,1.06
37,1.07,1.24,-0.93,0.03,-0.10,1.06
38,0.85,1.39,-1.59,0.02,-0.09,1.05
39,0.79,0.78,-1.73,0.02,-0.09,1.06
40,0.43,0.50,-0.64,0.02,-0.10,1.06
41,0.87,0.66,-0.78,0.02,-0.09,1.07
42,1.04,0.87,-0.92,0.02,-0.10,1.06
43,0.70,1.15,-0.64,0.01,-0.10,1.06
44,0.67,0.84,0.14,0.01,-0.09,1.07
45,1.18,0.67,-0.15,0.01,-0.09,1.07
46,0.60,0.26,-0.43,0.00,-0.09,1.07
47,0.00,0.34,-0.44,0.00,-0.09,1.07
48,-0.21,-0.23,-0.78,0.01,-0.09,1.07
49,-0.49,-0.61,-0.66,0.00,-0.10,1.06
50,-0.53,-0.27,-0.35,0.01,-0.10,1.05
51,-0.31,-0.34,-1.08,0.01,-0.10,1.07
52,-0.32,-0.90,-0.72,0.01,-0.10,1.06
53,-0.81,-1.13,0.20,0.01,-0.09,1.06
54,-0.29,-0.89,0.26,0.02,-0.09,1.06
55,-0.02,-0.72,0.14,0.02,-0.10,1.07
56,-0.35,-0.55,0.67,0.02,-0.10,1.07
57,-0.61,-0.40,0.12,0.01,-0.10,1.06
58,-0.27,-0.52,0.15,0.02,-0.11,1.06
59,-0.53,-0.26,0.60,0.03,-0.11,1.05
60,-0.67,0.05,0.55,0.03,-0.10,1.07
61,0.09,-0.17,0.44,0.03,-0.10,1.05
62,0.15,0.44,0.96,0.02,-0.10,1.06
63,0.20,0.34,1.11,0.03,-0.10,1.06
64,0.34,0.40,0.50,0.02,-0.10,1.07
65,0.12,0.31,0.69,0.02,-0.10,1.06
66,-0.11,0.53,1.16,0.02,-0.10,1.07
67,0.64,0.63,1.21,0.02,-0.10,1.07
68,0.82,0.52,1.27,0.01,-0.10,1.07
69,0.38,0.29,1.37,0.02,-0.10,1.06
70,-0.08,0.46,1.11,0.02,-0.09,1.07
71,0.11,-0.05,0.73,0.01,-0.09,1.08
72,-0.05,0.67,1.07,0.03,-0.10,1.06
73,-0.26,0.46,0.89,0.02,-0.10,1.06
74,0.34,0.63,0.17,0.03,-0.10,1.06
75,-0.17,0.64,0.02,0.02,-0.10,1.05
76,-1.13,0.05,-2.82,0.02,-0.09,1.06
77,0.43,0.84,-0.34,0.10,-0.09,1.01
78,2.43,1.85,1.69,0.04,-0.12,1.06
79,-0.02,1.10,1.68,0.01,-0.09,1.05
80,-0.03,1.45,-0.11,0.02,-0.10,1.08
81,-0.49,0.93,-0.32,0.01,-0.09,1.06
82,0.37,0.99,2.24,0.02,-0.10,1.06
83,1.34,1.62,0.96,0.02,-0.09,1.06
84,0.90,1.36,0.49,0.02,-0.09,1.06
85,-0.02,0.96,1.44,0.02,-0.10,1.05
86,-0.38,1.69,1.15,0.02,-0.09,1.06
87,0.29,1.28,1.39,0.02,-0.09,1.07
88,1.08,1.34,2.50,0.02,-0.09,1.07
89,1.18,1.30,2.58,0.01,-0.10,1.06
90,1.18,1.15,2.18,0.01,-0.09,1.06
91,0.67,0.96,2.12,0.01,-0.10,1.07
92,0.02,0.98,2.34,0.02,-0.10,1.06
93,0.24,0.72,2.66,0.02,-0.09,1.06
94,0.89,0.81,2.60,0.01,-0.10,1.06
95,0.49,0.87,2.50,0.02,-0.10,1.05
96,0.26,0.92,2.17,0.02,-0.10,1.05
97,0.35,0.47,1.59,0.02,-0.09,1.05
98,0.35,0.69,1.60,0.01,-0.11,1.07
99,-0.18,0.78,1.45,0.02,-0.10,1.06
100,0.21,0.60,1.33,0.02,-0.10,1.06
101,0.24,0.78,1.45,0.01,-0.10,1.07
102,0.12,0.67,1.45,0.02,-0.10,1.06
103,-0.38,0.76,0.87,0.02,-0.10,1.07
104,-0.20,0.95,1.31,0.02,-0.10,1.06
105,0.20,0.96,2.70,0.02,-0.10,1.06
106,0.49,1.44,2.58,0.02,-0.09,1.06
107,0.69,1.27,2.31,0.02,-0.10,1.07
108,0.55,0.95,2.29,0.01,-0.10,1.06
109,-0.38,1.01,1.65,0.01,-0.10,1.07
110,-0.99,0.43,0.64,0.01,-0.10,1.08
111,-0.90,0.24,1.07,0.01,-0.10,1.06
112,-0.46,0.64,1.44,0.02,-0.10,1.06
113,-0.08,0.87,0.99,0.02,-0.09,1.05
114,0.03,1.24,2.09,0.02,-0.10,1.05
115,0.02,1.04,2.18,0.02,-0.11,1.06
116,-0.20,0.96,1.33,0.01,-0.11,1.07
117,-0.15,0.73,0.89,0.01,-0.11,1.07
118,-0.40,0.47,1.13,0.02,-0.11,1.07
119,-0.15,0.69,1.53,0.02,-0.09,1.07
120,0.38,0.90,1.42,0.02,-0.10,1.07
121,0.41,0.63,2.09,0.02,-0.10,1.05
122,0.69,0.78,2.26,0.02,-0.10,1.06
123,1.02,0.98,2.18,0.02,-0.10,1.07
124,0.98,1.11,1.86,0.02,-0.09,1.06
125,0.93,0.92,2.23,0.01,-0.09,1.06
126,1.04,0.69,2.17,0.01,-0.10,1.07
127,0.90,0.56,2.43,0.01,-0.09,1.06
128,0.64,0.69,2.69,0.01,-0.09,1.07
129,0.50,0.63,2.12,0.01,-0.10,1.07
130,0.34,0.31,1.82,0.01,-0.10,1.07
131,0.14,0.11,2.18,0.02,-0.10,1.07
132,-0.05,0.26,2.24,0.02,-0.10,1.06
133,0.49,0.40,1.97,0.02,-0.11,1.06
134,0.17,0.90,2.18,0.02,-0.10,1.06
135,0.31,0.89,2.03,0.02,-0.10,1.07
136,-0.02,0.56,1.42,0.02,-0.10,1.06
137,-0.23,0.49,1.60,0.01,-0.10,1.06
138,-0.23,0.92,1.45,0.02,-0.10,1.06
139,0.29,0.78,1.36,0.02,-0.10,1.07
140,0.49,0.90,1.39,0.02,-0.10,1.06
141,-0.24,1.02,1.02,0.02,-0.10,1.06
142,-0.43,0.98,1.05,0.01,-0.10,1.07
143,0.20,0.73,1.13,0.01,-0.10,1.06
144,0.26,1.15,1.11,0.01,-0.10,1.06
145,0.02,0.99,0.75,0.01,-0.10,1.07
146,0.17,0.75,0.84,0.01,-0.10,1.06
147,0.82,0.76,2.24,0.01,-0.10,1.06
148,0.92,0.89,2.18,0.01,-0.10,1.06
149,1.62,0.96,1.54,0.01,-0.10,1.07
150,1.02,0.37,1.89,0.01,-0.10,1.06
151,-0.44,-0.02,1.98,0.01,-0.09,1.06
152,-0.03,0.11,1.59,0.01,-0.10,1.07
153,-0.15,0.75,1.47,0.02,-0.10,1.07
154,-0.03,0.18,1.15,0.01,-0.10,1.06
155,-0.56,-0.09,1.25,0.02,-0.10,1.06
156,-0.38,-0.26,1.59,0.01,-0.09,1.07
157,-0.18,0.27,1.59,0.02,-0.10,1.06
158,-0.47,0.34,0.66,0.02,-0.10,1.07
159,-0.11,0.56,1.11,0.02,-0.10,1.06
160,0.02,0.67,0.99,0.02,-0.10,1.06
161,-0.02,0.37,0.93,0.02,-0.10,1.07
162,0.53,0.66,1.13,0.03,-0.11,1.06
163,0.44,0.75,1.51,0.02,-0.09,1.06
164,0.27,1.15,1.36,0.02,-0.10,1.05
165,0.49,1.18,1.48,0.01,-0.09,1.07
166,0.58,0.84,1.60,0.02,-0.10,1.06
167,0.09,0.93,1.37,0.01,-0.09,1.06
168,0.23,0.92,1.40,0.01,-0.10,1.07
169,0.50,0.92,1.45,0.01,-0.10,1.06
170,0.17,0.75,1.39,0.01,-0.09,1.07
171,-0.44,0.81,0.85,0.01,-0.10,1.06
172,-0.46,0.50,0.24,0.01,-0.10,1.06
173,-0.64,0.60,0.81,0.01,-0.10,1.06
174,-0.47,0.55,1.36,0.01,-0.10,1.07
175,0.31,0.32,1.63,0.01,-0.10,1.06
176,0.44,0.38,1.74,0.02,-0.10,1.07
177,-0.34,0.14,1.01,0.01,-0.09,1.06
178,-0.52,-0.03,0.75,0.01,-0.09,1.07
179,-0.41,-0.11,0.85,0.02,-0.10,1.06
180,-0.29,0.38,1.05,0.02,-0.10,1.06
181,0.15,0.47,1.15,0.02,-0.10,1.07
182,0.69,0.43,1.40,0.01,-0.11,1.07
183,0.23,0.55,1.73,0.02,-0.10,1.06
184,0.05,0.81,1.53,0.02,-0.09,1.06
185,0.32,0.78,1.42,0.01,-0.10,1.07
186,0.35,0.92,1.79,0.02,-0.09,1.06
187,0.11,0.99,1.27,0.02,-0.10,1.07
188,0.18,1.10,1.07,0.01,-0.10,1.07
189,0.02,0.93,1.36,0.02,-0.10,1.06
190,-0.06,0.85,1.56,0.01,-0.09,1.06
191,0.24,0.98,1.42,0.01,-0.10,1.07
192,0.43,0.95,1.60,0.01,-0.09,1.06
193,0.46,1.02,2.05,0.01,-0.10,1.06
194,0.20,0.76,1.36,0.01,-0.10,1.07
195,0.24,0.87,1.21,0.01,-0.10,1.06
196,0.00,0.90,1.92,0.00,-0.10,1.07
197,0.43,0.56,2.15,0.01,-0.10,1.07
198,0.43,0.56,1.37,0.01,-0.10,1.07
199,0.08,0.69,1.08,0.01,-0.10,1.06
200,-0.49,0.89,1.24,0.01,-0.09,1.06
201,0.02,0.31,1.42,0.01,-0.10,1.06
202,0.38,0.24,1.44,0.01,-0.10,1.07
203,-0.02,0.34,1.57,0.01,-0.10,1.06
204,-0.02,0.37,1.31,0.01,-0.10,1.06
205,-0.03,0.50,1.25,0.01,-0.10,1.07
206,-0.15,0.53,2.06,0.01,-0.10,1.07
207,0.08,0.35,1.59,0.01,-0.10,1.06
208,0.23,0.38,1.27,0.01,-0.10,1.07
209,-0.26,0.24,1.19,0.02,-0.11,1.06
210,-0.61,0.31,0.95,0.01,-0.10,1.06
211,-0.32,-0.11,0.89,0.02,-0.10,1.06
212,0.08,0.69,1.24,0.01,-0.10,1.06
213,-0.15,0.34,0.95,0.01,-0.09,1.07
214,-0.11,0.35,0.92,0.01,-0.10,1.07
215,-0.08,0.81,1.19,0.01,-0.11,1.06
216,-0.15,0.79,1.05,0.02,-0.10,1.07
217,-0.14,0.89,0.66,0.02,-0.10,1.06
218,0.38,0.79,0.82,0.02,-0.11,1.06
219,0.14,0.78,1.33,0.01,-0.10,1.05
220,0.31,0.70,1.16,0.02,-0.09,1.06
221,0.67,0.81,1.37,0.01,-0.10,1.06
222,0.17,1.19,1.48,0.01,-0.09,1.07
223,-0.06,0.85,1.21,0.00,-0.10,1.06
224,0.49,0.46,1.10,0.01,-0.10,1.06
225,0.55,0.75,1.74,0.02,-0.10,1.07
226,0.11,0.50,1.50,0.01,-0.10,1.06
227,0.38,0.43,1.13,0.01,-0.10,1.07
228,0.09,0.15,1.50,0.01,-0.10,1.07
229,0.02,0.61,1.53,0.01,-0.10,1.06
230,0.09,0.63,0.89,0.00,-0.09,1.07
231,0.06,0.43,0.79,0.00,-0.10,1.06
232,-0.32,0.37,0.92,0.01,-0.10,1.07
233,-0.50,0.44,0.44,0.01,-0.09,1.06
234,-0.32,0.55,0.20,0.01,-0.10,1.06
235,-0.60,0.41,0.60,0.01,-0.10,1.07
236,-0.41,0.49,0.43,0.01,-0.10,1.07
237,0.38,0.70,0.78,0.01,-0.10,1.07
238,0.41,0.55,1.22,0.01,-0.10,1.06
239,0.40,0.58,1.24,0.01,-0.10,1.06
240,0.50,0.32,0.98,0.01,-0.10,1.06
241,0.26,0.31,1.02,0.00,-0.10,1.07
242,-0.02,0.17,1.73,0.01,-0.10,1.06
243,0.06,-0.12,1.94,0.01,-0.09,1.06
244,0.58,-0.12,1.89,0.01,-0.10,1.06
245,0.32,-0.02,1.77,0.01,-0.10,1.06
246,0.15,0.08,1.19,0.01,-0.10,1.08
247,-0.53,-0.31,0.72,0.01,-0.11,1.06
248,-0.43,0.05,1.34,0.01,-0.10,1.06
249,0.11,0.29,1.53,0.02,-0.09,1.06
250,0.47,0.46,1.31,0.02,-0.10,1.06
251,0.26,0.50,1.18,0.02,-0.10,1.06
252,-0.46,0.56,0.82,0.02,-0.10,1.06
253,-0.08,0.82,0.75,0.02,-0.10,1.06
254,0.41,0.79,0.96,0.01,-0.11,1.05
255,0.11,1.24,0.85,0.02,-0.10,1.06
256,0.03,1.11,0.64,0.01,-0.10,1.07
257,0.24,1.11,0.67,0.00,-0.10,1.07
258,0.14,1.02,0.96,0.01,-0.10,1.05
259,0.06,0.75,0.40,0.00,-0.10,1.07
260,0.31,0.81,0.72,0.01,-0.10,1.07
261,0.35,0.66,1.45,0.01,-0.10,1.06
262,-0.20,0.67,1.19,0.01,-0.09,1.06
263,0.14,0.38,0.96,0.01,-0.10,1.07
264,0.14,0.35,1.45,0.01,-0.10,1.06
265,0.35,0.55,1.62,0.01,-0.10,1.07
266,0.20,0.53,1.08,0.01,-0.11,1.06
267,-0.20,0.06,0.69,0.01,-0.11,1.06
268,-0.49,0.11,0.87,0.01,-0.10,1.06
269,-0.35,0.12,0.72,0.01,-0.10,1.07
270,-0.05,0.18,0.72,0.01,-0.10,1.06
271,-0.02,0.41,1.65,0.02,-0.10,1.06
272,0.05,0.50,1.54,0.02,-0.09,1.05
273,0.41,0.67,1.60,0.02,-0.11,1.07
274,0.43,0.78,1.89,0.01,-0.11,1.07
275,0.40,0.66,1.47,0.02,-0.10,1.07
276,0.06,0.40,0.78,0.01,-0.10,1.06
277,0.26,0.15,0.92,0.01,-0.10,1.06
278,0.02,0.79,1.47,0.01,-0.09,1.05
279,0.35,0.92,1.40,0.02,-0.09,1.07
280,0.50,0.72,1.21,0.01,-0.10,1.06
281,0.23,1.07,1.50,0.01,-0.10,1.06
282,0.03,0.49,1.33,0.01,-0.09,1.07
283,0.55,0.18,1.22,0.00,-0.10,1.07
284,0.46,0.38,1.39,0.01,-0.10,1.06
285,0.03,0.31,1.34,0.01,-0.10,1.06
286,0.06,0.37,0.89,0.01,-0.10,1.06
287,0.23,0.47,0.96,0.00,-0.10,1.06
288,-0.02,0.63,1.62,0.01,-0.09,1.06
289,0.35,0.11,1.36,0.01,-0.09,1.07
290,0.89,0.11,1.33,0.01,-0.10,1.07
291,0.24,0.47,1.45,0.01,-0.10,1.06
292,0.00,0.55,1.01,0.02,-0.09,1.05
293,0.41,0.49,1.28,0.02,-0.10,1.06
294,0.53,0.95,1.94,0.01,-0.10,1.05
295,0.58,1.25,1.89,0.01,-0.10,1.06
296,0.76,0.90,0.93,0.01,-0.10,1.08
297,0.23,0.66,1.15,0.01,-0.10,1.07
298,-0.46,0.61,0.70,0.01,-0.10,1.06
299,-0.32,0.06,0.61,0.00,-0.10,1.06
300,0.12,0.34,1.05,0.01,-0.10,1.06
301,0.02,0.58,1.31,0.02,-0.10,1.07
302,-0.15,0.32,0.78,0.01,-0.10,1.06
303,-0.03,0.31,0.53,0.00,-0.10,1.07
304,-0.11,0.44,1.08,0.00,-0.10,1.06
305,-0.11,0.35,0.38,0.01,-0.10,1.07
306,-0.14,-0.05,0.20,0.01,-0.10,1.07
307,-0.35,-0.18,0.53,0.01,-0.09,1.06
308,-0.50,0.47,0.63,0.01,-0.09,1.07
309,0.15,0.26,0.82,0.02,-0.10,1.06
310,0.38,0.27,1.47,0.02,-0.10,1.06
311,-0.14,0.61,1.13,0.01,-0.10,1.07
312,0.00,-0.03,0.73,0.01,-0.10,1.06
313,0.50,0.26,1.54,0.01,-0.10,1.07
314,0.35,0.52,1.33,0.02,-0.10,1.07
315,0.32,0.47,0.93,0.01,-0.10,1.06
316,0.61,0.60,1.01,0.01,-0.10,1.06
317,0.69,0.64,1.89,0.02,-0.10,1.07
318,0.69,0.70,1.37,0.02,-0.09,1.07
319,0.70,0.55,0.79,0.00,-0.10,1.06
320,-0.06,0.78,0.90,0.01,-0.09,1.07
321,-0.12,0.44,0.99,0.01,-0.09,1.06
322,-0.15,0.26,0.52,0.00,-0.10,1.07
323,-0.44,0.53,0.56,0.01,-0.10,1.06
324,-0.58,0.24,0.66,0.01,-0.10,1.07
325,-0.70,0.14,0.26,0.00,-0.09,1.07
326,-0.24,-0.08,0.20,0.01,-0.10,1.07
327,-0.23,-0.09,1.11,0.01,-0.10,1.06
328,0.06,-0.09,1.59,0.02,-0.10,1.06
329,1.02,-0.02,1.98,0.01,-0.11,1.06
330,1.02,0.24,2.60,0.01,-0.10,1.06
331,0.53,0.50,1.97,0.02,-0.10,1.06
332,0.46,0.17,1.10,0.02,-0.10,1.06
333,0.23,0.46,1.62,0.01,-0.10,1.06
334,0.24,0.58,1.30,0.01,-0.09,1.06
335,0.24,0.41,0.43,0.01,-0.11,1.07
336,-0.05,0.24,0.69,0.01,-0.10,1.07
337,-0.32,0.27,0.82,0.01,-0.10,1.06
338,-0.31,0.31,0.15,0.01,-0.09,1.06
339,-0.08,0.00,0.49,0.01,-0.10,1.06
340,-0.03,0.64,1.34,0.02,-0.10,1.05
341,0.38,0.69,1.42,0.01,-0.10,1.06
342,0.75,0.70,1.44,0.01,-0.10,1.06
343,0.50,0.69,1.30,0.01,-0.10,1.07
344,0.06,0.73,0.93,0.02,-0.10,1.06
345,0.17,0.09,0.52,0.01,-0.10,1.07
346,0.23,0.08,1.16,0.01,-0.09,1.06
347,0.14,0.14,1.62,0.01,-0.09,1.06
348,0.50,0.14,1.13,0.01,-0.10,1.06
349,0.70,0.76,1.37,0.01,-0.10,1.06
350,0.38,0.79,1.89,0.01,-0.10,1.05
351,0.34,0.52,1.30,0.00,-0.10,1.06
352,0.67,0.58,1.04,0.01,-0.10,1.07
353,0.37,0.26,1.68,0.00,-0.09,1.06
354,0.06,-0.08,1.47,0.00,-0.09,1.07
355,0.14,-0.15,1.16,0.01,-0.09,1.06
356,-0.11,-0.08,1.33,0.01,-0.10,1.06
357,-0.43,-0.21,1.42,0.01,-0.09,1.07
358,-0.23,-0.38,1.05,0.01,-0.10,1.06
359,-0.35,-0.46,0.67,0.01,-0.10,1.06
360,-0.72,-0.67,0.85,0.01,-0.10,1.07
361,-0.70,-0.49,0.34,0.01,-0.10,1.06
362,-0.34,-0.18,0.89,0.02,-0.10,1.06
363,-0.08,0.18,1.57,0.02,-0.10,1.06
364,0.44,0.37,1.60,0.02,-0.10,1.06
365,0.63,0.60,1.56,0.02,-0.11,1.07
366,0.29,0.79,1.65,0.02,-0.10,1.05
367,0.11,0.76,0.89,0.02,-0.10,1.05
368,-0.06,0.67,0.38,0.01,-0.10,1.06
369,0.08,1.01,1.21,0.01,-0.09,1.05
370,0.40,1.16,1.66,0.01,-0.09,1.05
371,0.63,1.16,1.08,0.00,-0.09,1.06
372,0.53,1.07,1.04,0.00,-0.10,1.07
373,-0.29,0.72,1.16,-0.00,-0.09,1.07
374,-0.23,0.50,0.60,0.00,-0.09,1.07
375,0.12,0.18,0.95,0.00,-0.10,1.07
376,0.08,0.31,1.33,0.01,-0.10,1.06
377,0.02,0.02,1.05,0.01,-0.10,1.07
378,0.09,0.14,0.99,0.00,-0.10,1.07
379,-0.21,0.34,1.08,0.01,-0.10,1.06
380,-0.56,0.52,0.90,0.01,-0.10,1.06
381,-0.08,0.17,0.87,0.01,-0.10,1.06
382,-0.17,0.40,1.15,0.01,-0.10,1.06
383,-0.12,0.37,1.01,0.01,-0.10,1.05
384,-0.32,0.20,0.89,0.02,-0.10,1.07
385,-0.38,0.03,0.89,0.01,-0.10,1.07
386,-0.38,0.09,0.96,0.01,-0.10,1.07
387,0.05,0.27,0.93,0.02,-0.10,1.06
388,0.47,0.43,1.21,0.01,-0.10,1.06
389,0.63,0.67,1.53,0.01,-0.10,1.07
390,0.49,0.50,1.39,0.02,-0.09,1.06
391,0.72,0.55,1.47,0.01,-0.11,1.06
392,0.70,0.85,1.95,0.01,-0.10,1.06
393,0.98,0.50,1.83,0.01,-0.10,1.07
394,0.63,0.55,1.48,0.00,-0.09,1.07
395,0.32,0.40,1.50,0.01,-0.10,1.07
396,0.23,0.34,1.50,0.01,-0.09,1.06
397,-0.14,0.32,0.82,0.01,-0.10,1.06
398,-0.17,0.60,0.64,0.01,-0.09,1.06
399,-0.61,0.49,1.04,0.01,-0.10,1.06
400,-0.43,0.56,1.18,0.01,-0.09,1.06
401,-0.23,0.00,1.04,0.01,-0.10,1.07
402,-0.50,0.11,0.96,0.01,-0.10,1.07
403,-0.23,-0.03,0.95,0.01,-0.10,1.06
404,0.11,0.14,0.69,0.01,-0.10,1.06
405,0.09,-0.15,0.61,0.01,-0.10,1.06
406,-0.15,0.23,0.58,0.01,-0.10,1.06
407,0.31,0.34,0.87,0.01,-0.10,1.06
408,0.49,0.50,1.27,0.02,-0.11,1.06
409,0.38,0.72,1.22,0.01,-0.10,1.06
410,0.67,0.98,1.15,0.02,-0.09,1.05
411,0.44,0.96,1.15,-0.00,-0.10,1.07
412,-0.05,0.41,1.21,0.01,-0.10,1.06
413,0.18,0.64,1.31,0.01,-0.10,1.07
414,0.15,0.26,1.34,0.01,-0.10,1.07
415,0.12,0.55,1.53,0.00,-0.10,1.07
416,0.21,0.49,1.66,0.01,-0.10,1.06
417,0.00,0.38,0.87,0.01,-0.10,1.06
418,-0.15,0.21,0.78,0.01,-0.10,1.06
419,-0.26,0.27,0.78,0.01,-0.10,1.06
420,-0.09,0.18,0.12,0.01,-0.10,1.07
421,-0.43,-0.05,0.29,0.01,-0.10,1.06
422,-0.41,0.26,0.08,0.02,-0.10,1.06
423,-0.41,0.29,0.12,0.01,-0.11,1.07
424,-0.15,0.05,0.31,0.01,-0.10,1.06
425,-0.41,0.41,0.73,0.01,-0.10,1.05
426,0.21,0.20,1.19,0.01,-0.10,1.06
427,0.40,0.15,1.13,0.01,-0.10,1.06
428,0.09,0.43,1.11,0.01,-0.10,1.07
429,-0.32,0.31,0.95,0.01,-0.10,1.07
430,0.02,0.37,1.19,0.02,-0.10,1.06
431,0.27,0.49,1.13,0.00,-0.10,1.06
432,0.26,0.15,1.16,0.00,-0.10,1.06
433,0.31,0.56,1.11,0.00,-0.10,1.07
434,0.26,0.24,0.93,0.01,-0.10,1.08
435,0.21,0.27,1.07,0.00,-0.10,1.06
436,0.26,0.58,0.99,0.01,-0.10,1.07
437,0.21,0.27,1.01,0.01,-0.11,1.06
438,-0.02,0.11,1.10,0.01,-0.09,1.06
439,0.26,0.26,1.22,0.01,-0.09,1.06
440,0.67,0.17,1.73,0.00,-0.10,1.07
441,0.41,0.23,1.69,0.01,-0.09,1.07
442,0.44,0.15,1.71,0.01,-0.10,1.06
443,0.31,0.14,1.13,0.01,-0.10,1.06
444,-0.14,-0.08,0.64,0.01,-0.10,1.07
445,-0.26,-0.17,0.92,0.01,-0.10,1.07
446,-0.08,-0.09,0.99,0.02,-0.10,1.06
447,0.50,0.34,1.40,0.02,-0.10,1.06
448,0.12,0.34,1.15,0.02,-0.10,1.07
449,0.15,-0.15,1.05,0.02,-0.10,1.06
450,0.11,0.76,1.54,0.01,-0.10,1.06
451,0.17,0.89,1.73,0.02,-0.09,1.07
452,0.46,0.70,1.42,0.01,-0.10,1.07
453,0.90,0.87,1.59,0.01,-0.11,1.07
454,0.66,0.72,1.21,0.01,-0.10,1.06
455,0.03,0.27,0.76,0.01,-0.09,1.07
456,0.08,0.12,0.75,0.01,-0.10,1.06
457,0.03,0.50,1.16,0.01,-0.10,1.06
458,0.09,0.63,1.07,0.01,-0.09,1.06
459,0.12,0.46,1.18,0.01,-0.10,1.06
460,0.64,0.35,1.66,0.01,-0.10,1.07
461,0.38,0.29,1.50,0.01,-0.10,1.06
462,0.03,0.34,0.70,0.00,-0.10,1.06
463,-0.02,0.15,1.15,0.00,-0.11,1.07
464,0.35,0.43,1.11,0.01,-0.10,1.07
465,0.21,0.02,1.10,0.01,-0.08,1.06
466,0.08,0.26,1.18,0.00,-0.10,1.05
467,0.35,0.53,1.63,0.01,-0.10,1.07
468,0.60,0.78,1.39,0.01,-0.10,1.06
469,0.23,0.49,0.76,0.01,-0.10,1.06
470,0.11,0.38,0.75,0.01,-0.10,1.07
471,0.00,0.24,0.66,0.01,-0.10,1.07
472,0.06,0.02,0.38,0.00,-0.09,1.06
473,-0.06,-0.11,0.70,0.01,-0.10,1.06
474,-0.09,0.15,1.44,0.01,-0.09,1.06
475,-0.05,0.03,1.53,0.01,-0.09,1.06
476,0.38,0.00,1.82,0.02,-0.10,1.07
477,0.21,-0.02,1.50,0.02,-0.10,1.06
478,-0.31,0.18,1.25,0.02,-0.10,1.06
479,-0.18,0.17,1.44,0.02,-0.11,1.07
480,-0.05,0.29,1.50,0.01,-0.10,1.06
481,0.14,0.41,1.16,0.01,-0.10,1.06
482,0.40,0.52,1.42,0.01,-0.10,1.06
483,0.55,0.23,1.60,0.02,-0.10,1.06
484,0.34,0.27,1.15,0.01,-0.10,1.06
485,0.00,0.43,0.72,0.01,-0.10,1.07
486,0.00,0.56,0.31,0.01,-0.10,1.06
487,-0.52,0.75,0.15,0.01,-0.09,1.06
488,-0.55,0.84,0.24,0.02,-0.09,1.06
489,0.06,0.87,0.69,0.01,-0.10,1.06
490,0.29,0.96,1.07,0.01,-0.10,1.07
491,0.17,0.90,1.01,0.01,-0.10,1.07
492,0.31,0.79,1.15,0.00,-0.10,1.08
493,0.14,0.40,1.30,0.01,-0.10,1.06
494,0.20,0.31,1.05,0.01,-0.10,1.07
495,0.34,0.50,1.10,0.01,-0.10,1.07
496,0.06,0.32,0.85,0.01,-0.10,1.07
497,-0.24,0.41,0.95,0.00,-0.10,1.06
498,0.15,0.50,1.25,0.00,-0.10,1.06
499,0.26,0.06,0.73,0.01,-0.10,1.07
500,-0.11,0.09,1.01,0.01,-0.10,1.06
501,-0.18,0.24,1.27,0.01,-0.09,1.07
502,0.09,0.11,1.71,0.01,-0.10,1.06
503,0.34,0.44,1.79,0.01,-0.10,1.06
504,0.29,0.38,1.42,0.01,-0.10,1.07
505,0.08,0.34,1.07,0.01,-0.10,1.07
506,-0.17,0.05,1.08,0.01,-0.10,1.06
507,-0.21,0.06,1.36,0.01,-0.10,1.06
508,0.17,0.20,1.39,0.02,-0.09,1.06
509,0.21,0.15,0.92,0.01,-0.10,1.06
510,-0.08,0.64,1.19,0.01,-0.10,1.06
511,0.11,0.27,1.07,0.02,-0.10,1.07
512,0.41,0.37,1.24,0.01,-0.11,1.06
513,0.21,0.47,0.84,0.01,-0.10,1.07
514,-0.21,0.52,0.56,0.01,-0.10,1.06
515,-0.15,0.27,1.05,0.02,-0.10,1.06
516,0.17,0.69,1.30,0.01,-0.10,1.07
517,0.08,0.67,1.10,0.01,-0.10,1.07
518,-0.14,0.50,0.82,0.01,-0.10,1.07
519,0.14,0.56,1.16,0.01,-0.10,1.06
520,0.29,0.58,1.39,0.02,-0.10,1.06
521,0.29,0.20,1.71,0.01,-0.10,1.06
522,0.69,0.47,1.31,0.01,-0.10,1.06
523,-0.05,0.18,1.31,0.02,-0.10,1.07
524,0.02,0.15,0.92,0.01,-0.11,1.07
525,0.02,0.03,0.84,0.01,-0.10,1.06
526,0.08,0.24,1.07,0.01,-0.10,1.06
527,-0.02,0.55,1.01,0.01,-0.09,1.06
528,0.05,0.56,0.95,0.01,-0.10,1.08
529,0.40,0.90,0.99,0.01,-0.10,1.06
530,-0.21,0.61,1.07,0.01,-0.10,1.06
531,-0.09,0.40,0.98,0.01,-0.10,1.07
532,0.06,0.21,0.73,0.01,-0.10,1.06
533,0.06,0.47,0.75,0.01,-0.10,1.07
534,-0.06,0.29,0.99,0.01,-0.09,1.06
535,-0.18,0.00,0.64,0.01,-0.09,1.07
536,-0.18,0.50,0.89,0.01,-0.09,1.06
537,0.37,0.31,1.82,0.01,-0.10,1.06
538,0.53,0.41,1.62,0.00,-0.10,1.06
539,0.63,0.37,1.39,0.00,-0.10,1.07
540,0.55,0.11,1.56,0.01,-0.10,1.07
541,-0.02,0.00,1.11,0.01,-0.10,1.07
542,0.02,0.06,1.08,0.01,-0.10,1.06
543,0.38,0.40,1.24,0.02,-0.09,1.07
544,0.09,0.67,0.84,0.01,-0.10,1.06
545,-0.32,0.53,0.52,0.01,-0.10,1.07
546,-0.34,0.38,0.56,0.01,-0.11,1.06
547,-0.17,0.56,0.49,0.02,-0.10,1.06
548,-0.53,0.06,-0.18,0.01,-0.09,1.07
549,-0.70,0.26,0.08,0.01,-0.10,1.06
550,-0.32,0.47,0.43,0.01,-0.10,1.06
551,0.18,0.47,1.10,0.01,-0.10,1.07
552,0.53,0.55,1.01,0.01,-0.10,1.06
553,0.17,0.32,0.84,0.01,-0.10,1.07
554,-0.18,0.40,0.35,0.00,-0.10,1.07
555,-0.24,0.09,0.61,0.01,-0.10,1.06
556,-0.21,0.17,1.02,0.01,-0.10,1.06
557,0.00,0.06,1.21,0.01,-0.09,1.06
558,0.63,0.12,1.83,0.01,-0.10,1.06
559,0.37,0.35,1.97,0.01,-0.10,1.05
560,0.35,0.34,1.82,0.01,-0.10,1.06
561,0.34,0.18,1.40,0.01,-0.10,1.07
562,0.47,0.38,1.31,0.01,-0.10,1.06
563,0.29,0.06,1.31,0.01,-0.10,1.06
564,0.24,0.11,1.21,0.01,-0.10,1.06
565,0.27,0.27,1.01,0.01,-0.09,1.07
566,0.26,0.23,1.16,0.00,-0.10,1.06
567,0.43,0.35,1.08,0.01,-0.10,1.07
568,0.29,0.46,0.60,0.01,-0.10,1.06
569,-0.09,0.43,0.72,0.01,-0.10,1.06
570,-0.23,0.20,0.61,0.01,-0.10,1.06
571,-0.05,0.40,0.50,0.01,-0.10,1.07
572,0.00,0.35,0.81,0.01,-0.10,1.06
573,0.05,0.50,0.85,0.01,-0.09,1.07
574,-0.06,0.00,0.66,0.01,-0.10,1.07
575,0.20,-0.20,0.64,0.01,-0.10,1.06
576,-0.24,0.14,0.82,0.01,-0.10,1.05
577,-0.44,0.02,0.73,0.02,-0.10,1.06
578,-0.05,-0.03,0.87,0.01,-0.10,1.05
579,0.27,0.38,1.50,0.01,-0.10,1.05
580,0.63,0.18,1.56,0.01,-0.11,1.06
581,0.61,0.18,1.45,0.01,-0.11,1.06
582,0.27,0.70,1.07,0.01,-0.11,1.06
583,-0.20,0.47,0.52,0.01,-0.11,1.07
584,-0.29,0.23,0.72,0.00,-0.10,1.08
585,0.29,0.20,1.05,0.01,-0.10,1.06
586,0.18,0.27,0.64,0.01,-0.09,1.06
587,0.40,0.23,0.76,0.01,-0.10,1.06
588,0.43,0.32,0.70,0.01,-0.10,1.07
589,0.08,0.20,1.08,0.01,-0.10,1.06
590,0.46,0.34,0.95,0.01,-0.10,1.07
591,0.40,0.41,1.42,0.01,-0.10,1.07
592,0.76,0.17,1.44,0.01,-0.10,1.06
593,0.64,0.06,1.21,0.01,-0.10,1.06
594,0.56,0.17,1.07,0.01,-0.09,1.07
595,0.15,-0.05,1.11,0.00,-0.09,1.06
596,-0.03,-0.20,1.30,0.00,-0.10,1.07
597,0.41,-0.29,1.24,0.01,-0.10,1.07
598,0.08,-0.40,1.73,0.01,-0.10,1.06
599,-0.31,0.02,1.30,0.01,-0.09,1.06
600,-0.37,-0.24,0.78,0.01,-0.10,1.07
601,-0.34,-0.34,1.08,0.01,-0.10,1.06
602,-0.17,-0.11,1.44,0.01,-0.10,1.06
603,0.27,0.35,1.66,0.02,-0.11,1.05
604,0.35,0.12,1.31,0.02,-0.10,1.07
605,0.11,0.44,1.08,0.02,-0.10,1.05
606,0.09,0.44,0.73,0.01,-0.10,1.06
607,0.02,0.38,0.41,0.02,-0.10,1.06
608,-0.14,0.82,0.63,0.02,-0.10,1.06
609,-0.23,0.82,0.35,0.01,-0.10,1.06
610,-0.26,0.99,0.20,0.01,-0.10,1.07
611,-0.06,0.78,0.52,0.01,-0.10,1.06
612,0.23,0.66,0.76,0.01,-0.09,1.07
613,0.50,0.79,1.27,0.01,-0.10,1.07
614,0.81,0.44,1.59,0.00,-0.10,1.06
615,0.24,0.64,1.85,0.00,-0.10,1.06
616,0.32,0.50,1.76,0.01,-0.10,1.07
617,0.38,0.27,1.85,0.01,-0.11,1.07
618,0.20,-0.17,1.27,0.00,-0.10,1.07
619,-0.17,-0.23,0.53,0.01,-0.10,1.06
620,-0.52,0.26,0.23,0.00,-0.09,1.06
621,-0.46,-0.03,0.64,0.02,-0.10,1.07
622,-0.32,0.18,0.55,0.01,-0.10,1.06
623,-0.09,-0.03,1.05,0.01,-0.09,1.06
624,0.34,-0.41,1.15,0.02,-0.10,1.06
625,-0.02,0.05,1.39,0.01,-0.10,1.06
626,-0.31,0.31,0.84,0.01,-0.10,1.07
627,-0.24,0.32,1.13,0.01,-0.10,1.06
628,-0.32,0.61,0.87,0.01,-0.10,1.06
629,0.11,0.55,1.47,0.02,-0.10,1.06
630,0.89,0.32,1.71,0.01,-0.10,1.06
631,0.87,0.40,1.74,0.01,-0.10,1.06
632,0.60,0.47,1.48,0.01,-0.10,1.07
633,0.50,0.75,1.11,0.01,-0.10,1.07
634,0.63,0.38,1.42,0.01,-0.10,1.06
635,0.58,0.44,1.48,0.01,-0.10,1.07
636,0.56,0.50,1.33,0.00,-0.10,1.06
637,0.63,0.14,1.07,0.01,-0.10,1.06
638,0.15,0.27,1.02,0.01,-0.10,1.06
639,-0.29,0.26,0.85,0.00,-0.10,1.06
640,0.03,0.06,1.21,0.01,-0.10,1.07
641,-0.17,0.14,1.07,0.01,-0.10,1.07
642,-0.11,0.23,0.79,0.01,-0.10,1.07
643,0.27,-0.18,0.85,0.01,-0.10,1.07
644,0.06,0.11,1.15,0.01,-0.10,1.07
645,0.15,0.29,0.92,0.02,-0.10,1.05
646,0.24,0.35,0.85,0.01,-0.10,1.06
647,0.32,0.43,1.40,0.02,-0.10,1.06
648,0.41,0.55,1.57,0.02,-0.10,1.06
649,0.58,0.61,0.99,0.01,-0.10,1.07
650,0.34,0.63,1.18,0.01,-0.10,1.06
651,0.43,0.58,1.68,0.01,-0.09,1.06
652,0.66,0.73,1.13,0.01,-0.10,1.06
653,0.46,0.56,0.92,0.01,-0.10,1.06
654,-0.29,0.29,0.85,0.01,-0.10,1.07
655,-0.90,0.12,0.31,0.01,-0.09,1.06
656,-0.61,-0.11,0.23,0.01,-0.10,1.06
657,-0.61,0.26,0.90,0.00,-0.10,1.06
658,-0.09,0.20,0.81,0.01,-0.10,1.07
659,-0.23,-0.17,0.49,0.01,-0.10,1.07
660,-0.34,-0.12,0.96,0.01,-0.10,1.07
661,0.05,-0.55,1.24,0.01,-0.11,1.07
662,0.61,-0.26,0.99,0.02,-0.10,1.06
663,0.44,0.15,1.07,0.01,-0.10,1.06
664,0.47,0.40,1.54,0.02,-0.10,1.07
665,0.78,0.79,1.77,0.02,-0.10,1.06
666,0.72,0.73,1.36,0.01,-0.10,1.07
667,0.38,0.44,1.08,0.01,-0.10,1.06
668,-0.09,0.85,0.84,0.01,-0.10,1.06
669,-0.05,0.72,0.37,0.02,-0.10,1.06
670,-0.20,0.72,0.69,0.01,-0.10,1.06
671,0.14,0.60,1.05,0.01,-0.09,1.06
672,0.29,0.58,1.04,0.01,-0.10,1.07
673,0.49,0.41,1.44,0.01,-0.10,1.07
674,0.05,0.23,1.30,0.01,-0.10,1.06
675,-0.21,0.17,0.78,0.01,-0.10,1.07
676,-0.05,0.12,1.22,0.01,-0.10,1.06
677,0.31,0.20,1.01,0.01,-0.10,1.06
678,0.18,0.14,0.90,0.01,-0.10,1.07
679,0.03,0.09,0.78,0.01,-0.11,1.07
680,-0.05,0.03,1.19,0.01,-0.10,1.07
681,-0.12,-0.05,0.85,0.01,-0.10,1.07
682,0.21,-0.08,1.07,0.01,-0.10,1.06
683,0.52,0.21,1.25,0.02,-0.10,1.06
684,0.31,0.31,1.47,0.02,-0.10,1.06
685,0.20,0.58,1.04,0.01,-0.10,1.07
686,-0.05,-0.03,1.01,0.00,-0.10,1.07
687,0.02,0.11,1.56,0.01,-0.11,1.07
688,0.26,0.18,1.42,0.01,-0.10,1.06
689,0.43,0.21,1.08,0.02,-0.10,1.07
690,0.02,0.31,0.82,0.01,-0.10,1.07
691,-0.38,-0.05,0.46,0.01,-0.09,1.06
692,-0.18,0.29,0.20,0.01,-0.11,1.06
693,-0.06,0.41,0.79,0.01,-0.10,1.07
694,0.41,0.53,0.81,0.01,-0.10,1.06
695,0.23,0.18,0.60,0.01,-0.10,1.06
696,0.09,0.52,0.84,0.02,-0.10,1.06
697,0.31,0.66,1.30,0.01,-0.10,1.06
698,0.41,0.67,1.15,0.01,-0.10,1.07
699,0.34,0.26,0.66,0.00,-0.10,1.07
700,-0.02,0.12,1.08,0.01,-0.10,1.07
701,0.26,0.03,1.04,0.01,-0.11,1.07
702,0.00,0.06,0.61,0.01,-0.10,1.06
703,-0.37,0.18,0.75,0.01,-0.10,1.06
704,-0.27,0.66,0.75,0.02,-0.10,1.06
705,0.03,0.52,1.02,0.01,-0.10,1.06
706,0.49,0.24,1.21,0.01,-0.09,1.07
707,0.58,0.64,1.16,0.01,-0.10,1.07
708,0.44,0.14,1.21,0.01,-0.10,1.06
709,0.26,0.24,1.02,0.01,-0.10,1.06
710,0.11,0.34,0.95,0.01,-0.10,1.06
711,0.38,0.41,0.99,0.02,-0.10,1.05
712,0.17,0.26,0.70,0.01,-0.10,1.06
713,0.17,0.20,0.99,0.01,-0.10,1.06
714,0.02,0.18,0.90,0.01,-0.10,1.07
715,0.08,0.02,0.73,0.01,-0.10,1.06
716,-0.11,0.27,0.84,0.01,-0.10,1.07
717,-0.37,0.24,0.50,0.02,-0.10,1.06
718,-0.29,-0.20,0.85,0.01,-0.09,1.06
719,0.12,-0.32,1.71,0.01,-0.10,1.07
720,0.29,-0.34,1.71,0.01,-0.10,1.06
721,0.12,-0.38,1.60,0.01,-0.10,1.07
722,-0.05,0.00,0.93,0.01,-0.10,1.06
723,-0.47,0.02,0.95,0.01,-0.11,1.06
724,-0.40,0.09,1.11,0.02,-0.10,1.07
725,0.26,0.26,1.16,0.02,-0.11,1.06
726,0.41,0.37,1.01,0.02,-0.10,1.07
727,0.20,0.41,0.78,0.02,-0.10,1.06
728,0.17,0.46,0.58,0.01,-0.10,1.06
729,0.23,0.92,0.73,0.02,-0.10,1.06
730,0.03,0.73,0.37,0.01,-0.10,1.06
731,0.06,0.64,0.56,0.01,-0.10,1.07
732,0.44,0.96,1.07,0.02,-0.10,1.06
733,0.56,1.18,1.39,0.01,-0.10,1.07
734,0.26,1.07,1.18,0.01,-0.10,1.06
735,0.24,0.56,1.04,0.00,-0.10,1.07
736,-0.05,0.32,1.15,-0.00,-0.10,1.06
737,-0.08,0.44,0.98,0.00,-0.10,1.06
738,0.11,0.29,0.99,0.01,-0.10,1.07
739,0.18,-0.05,1.54,0.00,-0.10,1.07
740,0.21,-0.06,1.37,0.01,-0.09,1.06
741,0.02,-0.05,1.07,0.01,-0.10,1.06
742,0.17,0.15,1.36,0.01,-0.10,1.06
743,0.03,0.52,1.30,0.01,-0.11,1.06
744,0.24,0.35,1.31,0.01,-0.10,1.06
745,0.35,0.12,1.33,0.01,-0.10,1.06
746,-0.02,0.29,1.11,0.01,-0.10,1.06
747,-0.24,0.34,0.92,0.01,-0.10,1.06
748,-0.29,0.38,0.96,0.02,-0.10,1.06
749,-0.11,0.29,0.67,0.02,-0.10,1.06
750,-0.21,0.92,1.05,0.02,-0.10,1.06
751,0.09,0.61,1.08,0.01,-0.10,1.07
752,0.50,0.44,1.13,0.01,-0.10,1.06
753,-0.09,0.70,1.08,0.01,-0.10,1.06
754,-0.27,0.60,0.56,0.01,-0.09,1.07
755,-0.35,0.23,-0.02,0.01,-0.10,1.07
756,-0.53,0.09,0.23,0.01,-0.10,1.06
757,-0.23,0.21,0.75,0.02,-0.10,1.06
758,0.34,0.24,1.19,0.00,-0.10,1.06
759,0.60,0.32,1.27,0.01,-0.10,1.06
760,0.24,0.44,0.98,0.01,-0.10,1.06
761,0.02,0.34,0.69,0.01,-0.10,1.07
762,-0.20,0.20,0.49,0.01,-0.10,1.08
763,-0.37,0.06,0.56,0.01,-0.10,1.06
764,-0.27,-0.20,0.66,0.01,-0.10,1.06
765,-0.08,0.21,0.67,0.02,-0.10,1.06
766,-0.27,0.47,0.64,0.01,-0.10,1.06
767,-0.46,0.55,0.46,0.01,-0.10,1.05
768,-0.31,0.78,0.58,0.00,-0.11,1.06
769,-0.02,0.85,1.07,0.01,-0.11,1.06
770,0.43,0.79,1.59,0.01,-0.10,1.07
771,0.95,0.60,1.74,0.01,-0.10,1.06
772,0.87,0.64,1.59,0.01,-0.10,1.07
773,0.17,0.84,1.16,0.01,-0.10,1.06
774,-0.05,0.82,1.04,0.01,-0.10,1.05
775,0.56,0.73,1.86,0.00,-0.10,1.06
776,0.47,0.63,1.91,0.01,-0.09,1.06
777,0.40,0.21,1.13,0.01,-0.10,1.06
778,-0.08,0.17,0.98,0.01,-0.10,1.07
779,-0.23,-0.18,0.82,0.00,-0.10,1.07
780,-0.44,0.14,0.61,0.01,-0.10,1.06
781,-0.20,0.17,0.50,0.01,-0.10,1.06
782,-0.15,0.15,0.75,0.02,-0.11,1.06
783,-0.05,0.49,0.82,0.02,-0.10,1.06
784,0.24,0.66,0.93,0.01,-0.10,1.06
785,0.61,0.38,1.30,0.02,-0.10,1.06
786,0.46,0.82,1.27,0.01,-0.10,1.07
787,0.47,0.79,0.90,0.02,-0.10,1.06
788,0.12,0.61,0.75,0.02,-0.10,1.07
789,-0.06,0.84,0.82,0.01,-0.10,1.06
790,-0.24,0.58,0.72,0.01,-0.10,1.06
791,0.12,0.46,0.56,0.01,-0.10,1.07
792,-0.12,0.31,0.64,0.00,-0.10,1.06
793,-0.49,0.21,0.58,0.01,-0.10,1.07
794,-0.08,0.11,0.53,0.00,-0.10,1.06
795,-0.11,0.31,0.63,0.00,-0.10,1.07
796,-0.23,0.12,0.78,0.01,-0.10,1.06
797,0.00,-0.14,0.67,0.01,-0.10,1.07
798,-0.03,0.05,0.70,0.01,-0.10,1.06
799,-0.35,0.08,0.78,0.02,-0.09,1.06
800,-0.24,0.17,0.66,0.01,-0.10,1.05
801,-0.14,0.61,0.75,0.01,-0.11,1.06
802,0.09,0.47,1.19,0.01,-0.10,1.06
803,0.12,0.56,1.18,0.01,-0.10,1.07
804,0.08,0.27,1.24,0.01,-0.10,1.06
805,0.50,0.72,1.89,0.02,-0.09,1.06
806,0.85,0.56,1.77,0.01,-0.10,1.06
807,0.85,0.79,1.42,0.01,-0.10,1.06
808,0.26,0.60,1.45,0.01,-0.10,1.06
809,0.09,0.53,1.73,0.01,-0.10,1.06
810,0.64,0.47,1.74,0.01,-0.10,1.06
811,0.72,0.05,1.76,0.01,-0.10,1.07
812,0.05,0.20,1.76,0.01,-0.10,1.06
813,0.18,-0.12,1.54,0.01,-0.10,1.07
814,0.56,0.02,1.56,0.01,-0.11,1.07
815,0.09,0.17,1.57,0.01,-0.10,1.06
816,-0.05,0.20,1.08,0.01,-0.10,1.07
817,0.38,0.50,1.24,0.01,-0.11,1.06
818,0.32,0.70,1.22,0.01,-0.11,1.06
819,0.00,0.41,0.92,0.01,-0.10,1.07
820,0.44,-0.02,0.93,0.01,-0.10,1.06
821,0.31,0.24,0.78,0.02,-0.10,1.07
822,-0.32,0.23,0.53,0.01,-0.10,1.06
823,-0.46,0.09,0.29,0.01,-0.10,1.06
824,0.00,0.43,0.20,0.01,-0.10,1.06
825,0.06,0.70,0.64,0.01,-0.09,1.06
826,0.32,0.44,0.78,0.02,-0.10,1.06
827,0.46,0.50,0.26,0.01,-0.10,1.08
828,0.26,0.17,0.90,0.01,-0.10,1.07
829,0.34,0.18,1.31,0.01,-0.10,1.07
830,0.24,0.27,0.84,0.01,-0.10,1.07
831,0.05,0.37,0.76,0.00,-0.10,1.06
832,-0.37,-0.12,1.04,0.01,-0.09,1.06
833,-0.21,-0.23,0.85,0.01,-0.09,1.06
834,0.03,-0.12,1.30,0.01,-0.10,1.06
835,0.11,-0.15,1.88,0.01,-0.10,1.07
836,0.32,-0.20,1.05,0.01,-0.10,1.07
837,0.11,0.00,0.90,0.02,-0.10,1.06
838,-0.02,0.00,1.34,0.01,-0.10,1.06
839,0.14,-0.02,1.22,0.02,-0.10,1.06
840,0.31,0.23,0.84,0.01,-0.10,1.06
841,0.18,0.50,0.79,0.02,-0.10,1.05
842,-0.02,0.92,0.67,0.01,-0.10,1.07
843,-0.27,0.75,0.26,0.02,-0.10,1.06
844,-0.18,0.58,0.43,0.01,-0.10,1.05
845,-0.64,0.93,0.44,0.01,-0.10,1.06
846,-0.38,1.05,0.61,0.01,-0.10,1.06
847,0.02,0.81,0.46,0.00,-0.11,1.07
848,-0.08,0.98,0.47,0.00,-0.10,1.06
849,0.09,0.81,0.70,0.00,-0.09,1.07
850,0.53,0.49,1.15,0.00,-0.10,1.07
851,0.35,0.24,1.45,0.00,-0.10,1.07
852,0.15,0.52,1.39,0.01,-0.10,1.07
853,0.15,0.05,1.19,0.00,-0.10,1.07
854,0.43,-0.18,1.44,0.00,-0.10,1.07
855,0.14,-0.20,1.54,0.01,-0.10,1.07
856,0.21,-0.12,0.79,0.01,-0.10,1.07
857,-0.09,-0.29,0.55,0.02,-0.10,1.06
858,-0.63,-0.05,0.95,0.01,-0.10,1.05
859,-0.46,0.26,0.60,0.01,-0.10,1.06
860,0.08,0.05,0.75,0.02,-0.10,1.07
861,-0.14,0.26,1.04,0.01,-0.10,1.06
862,-0.15,0.32,0.73,0.02,-0.11,1.07
863,-0.08,0.09,0.67,0.02,-0.11,1.07
864,0.15,0.38,1.01,0.01,-0.11,1.05
865,0.20,0.32,0.82,0.01,-0.10,1.07
866,0.67,0.29,0.67,0.02,-0.10,1.06
867,0.49,0.26,0.82,0.01,-0.10,1.06
868,-0.26,0.05,0.56,0.01,-0.10,1.06
869,-0.24,0.52,1.31,0.01,-0.09,1.05
870,0.61,0.95,1.27,0.01,-0.11,1.06
871,1.18,1.13,1.56,0.01,-0.10,1.07
872,0.66,1.07,1.19,0.01,-0.10,1.08
873,0.44,0.44,0.35,0.00,-0.11,1.09
874,-0.20,-0.09,0.89,0.00,-0.10,1.07
875,-0.35,0.24,1.11,0.01,-0.10,1.06
876,-0.12,0.03,1.05,0.01,-0.10,1.05
877,0.15,0.78,1.50,0.02,-0.10,1.06
878,0.15,1.11,1.51,0.01,-0.10,1.06
879,0.32,0.56,1.54,0.01,-0.10,1.06
880,0.60,0.73,1.42,0.00,-0.11,1.07
881,0.58,0.38,1.59,0.01,-0.10,1.07
882,0.31,0.38,1.11,0.01,-0.10,1.07
883,0.49,0.43,0.78,0.02,-0.10,1.06
884,0.03,0.63,1.25,0.01,-0.10,1.05
885,-0.18,1.08,1.31,0.01,-0.09,1.06
886,-0.18,0.43,0.99,0.01,-0.10,1.07
887,0.02,0.70,1.18,0.00,-0.10,1.06
888,-0.05,0.56,1.50,0.01,-0.10,1.07
889,-0.29,0.24,0.90,0.00,-0.10,1.07
890,-0.14,-0.09,0.82,0.00,-0.10,1.07
891,-0.32,-0.23,1.19,0.01,-0.10,1.05
892,-0.34,0.00,1.08,0.01,-0.09,1.06
893,0.17,0.03,1.19,0.01,-0.10,1.06
894,0.64,0.41,1.74,0.02,-0.11,1.06
895,0.40,0.08,1.44,0.01,-0.11,1.07
