,gyro_x,gyro_y,gyro_z,acce_x,acce_y,acce_z
0,2.32,-1.02,-2.92,0.03,-0.06,1.08
1,1.48,1.95,-2.79,0.04,-0.06,1.05
2,0.79,-0.55,-3.27,0.02,-0.05,1.15
3,0.99,-0.29,-2.81,0.03,-0.07,1.08
4,1.62,-0.64,-3.13,0.03,-0.07,1.08
5,0.43,0.40,-3.11,0.05,-0.08,1.07
6,-1.05,0.43,-1.74,0.04,-0.08,1.06
7,-1.27,2.40,-2.70,0.05,-0.08,1.05
8,-0.41,0.43,-2.43,0.02,-0.07,1.07
9,-2.27,0.34,-5.37,0.00,-0.06,1.08
10,-1.42,0.17,-3.24,0.02,-0.05,1.05
11,2.69,0.70,2.09,0.02,-0.06,1.04
12,4.08,2.53,1.53,0.02,-0.06,1.07
13,2.40,1.97,-1.22,0.01,-0.07,1.09
14,-0.23,-0.20,-1.21,0.02,-0.06,1.07
15,-0.26,-0.81,-0.73,0.01,-0.08,1.08
16,-1.02,-0.61,-3.30,0.01,-0.06,1.07
17,-1.33,-0.21,-2.87,0.03,-0.05,1.05
18,0.98,1.28,0.17,0.03,-0.06,1.05
19,2.37,1.98,0.87,0.02,-0.06,1.06
20,1.83,1.45,1.01,0.01,-0.06,1.07
21,0.37,0.67,-0.03,0.01,-0.07,1.07
22,-0.05,-0.34,-0.32,0.02,-0.06,1.08
23,0.03,-0.84,0.11,0.02,-0.07,1.07
24,0.21,-0.78,0.49,0.03,-0.06,1.06
25,0.47,-0.38,0.53,0.04,-0.06,1.06
26,-1.60,-0.32,-1.65,0.02,-0.05,1.05
27,-0.75,-0.56,0.61,0.03,-0.05,1.06
28,0.95,0.21,1.68,0.04,-0.06,1.05
29,1.04,0.70,0.64,0.04,-0.07,1.07
30,-0.32,0.41,0.14,0.03,-0.06,1.06
31,-1.18,0.24,0.52,0.03,-0.06,1.07
32,-0.21,0.52,0.87,0.04,-0.07,1.06
33,0.44,1.30,1.95,0.03,-0.07,1.06
34,0.60,1.40,2.70,0.03,-0.06,1.06
35,0.81,1.56,2.24,0.02,-0.06,1.07
36,0.72,1.21,2.05,0.02,-0.07,1.06
37,0.12,0.90,2.73,0.03,-0.06,1.06
38,-0.43,0.67,2.06,0.02,-0.06,1.06
39,0.15,1.01,1.82,0.02,-0.07,1.06
40,0.37,1.34,2.63,0.02,-0.07,1.06
41,-0.05,0.64,2.61,0.02,-0.06,1.06
42,-0.08,1.18,2.26,0.02,-0.06,1.07
43,-0.05,1.04,2.56,0.03,-0.07,1.06
44,-0.47,0.93,2.43,0.02,-0.06,1.07
45,-0.56,0.87,2.44,0.02,-0.05,1.07
46,-0.06,0.82,2.69,0.02,-0.06,1.07
47,-0.12,0.27,3.31,0.02,-0.06,1.07
48,-0.66,0.20,2.75,0.02,-0.06,1.07
49,-0.56,0.17,2.47,0.02,-0.06,1.07
50,-0.56,0.06,3.10,0.03,-0.07,1.06
51,-0.38,0.60,3.25,0.04,-0.06,1.06
52,-0.11,0.60,2.70,0.04,-0.06,1.07
53,-0.02,0.75,2.89,0.04,-0.07,1.06
54,-0.53,1.16,2.90,0.05,-0.07,1.06
55,-0.03,1.44,2.53,0.04,-0.08,1.05
56,-0.03,1.68,2.32,0.04,-0.07,1.06
57,-0.12,1.95,2.55,0.04,-0.07,1.06
58,0.21,2.08,2.58,0.03,-0.07,1.06
59,0.23,2.29,2.23,0.03,-0.06,1.06
60,0.38,2.55,2.20,0.03,-0.07,1.07
61,0.18,2.70,2.27,0.02,-0.07,1.06
62,0.35,2.72,2.15,0.03,-0.07,1.07
63,0.41,2.52,2.50,0.01,-0.06,1.08
64,0.15,2.24,2.98,0.02,-0.06,1.08
65,0.11,1.57,2.26,0.01,-0.06,1.07
66,-0.11,1.53,1.98,0.01,-0.06,1.07
67,-0.34,1.15,2.49,0.01,-0.06,1.07
68,-0.53,0.92,2.67,0.02,-0.06,1.05
69,-0.56,1.07,2.09,0.01,-0.07,1.07
70,-0.15,0.81,2.75,0.02,-0.07,1.07
71,-0.26,0.69,2.96,0.01,-0.06,1.06
72,-0.03,0.82,2.84,0.02,-0.07,1.07
73,-0.17,0.58,2.55,0.02,-0.07,1.07
74,-0.40,0.38,2.98,0.03,-0.07,1.06
75,-0.37,0.73,2.75,0.03,-0.07,1.06
76,0.44,0.92,3.02,0.04,-0.06,1.06
77,0.50,0.93,3.24,0.04,-0.07,1.06
78,-0.03,1.10,2.92,0.03,-0.06,1.06
79,-0.23,0.79,2.27,0.02,-0.06,1.06
80,0.09,1.21,2.50,0.02,-0.07,1.07
81,-0.41,1.25,2.37,0.03,-0.06,1.07
82,-0.44,1.19,1.82,0.03,-0.07,1.07
83,-0.20,1.37,2.26,0.02,-0.07,1.07
84,0.26,1.30,3.34,0.03,-0.07,1.08
85,0.60,1.53,3.15,0.02,-0.07,1.07
86,0.61,1.50,2.70,0.03,-0.07,1.06
87,0.53,1.22,2.44,0.02,-0.07,1.08
88,0.00,1.19,2.58,0.03,-0.06,1.06
89,0.49,1.04,2.20,0.02,-0.07,1.07
90,0.84,1.13,2.24,0.02,-0.07,1.07
91,0.61,1.08,2.60,0.02,-0.06,1.07
92,0.50,0.93,2.05,0.02,-0.06,1.06
93,0.58,1.05,2.37,0.02,-0.06,1.07
94,0.53,1.22,2.55,0.02,-0.06,1.07
95,0.23,1.02,2.46,0.02,-0.06,1.07
96,0.69,1.18,2.50,0.02,-0.07,1.07
97,0.47,0.96,2.56,0.02,-0.07,1.07
98,-0.17,0.23,2.64,0.02,-0.06,1.06
99,0.00,0.41,1.98,0.02,-0.06,1.07
100,0.29,0.58,2.44,0.02,-0.07,1.07
101,-0.08,0.63,2.84,0.02,-0.06,1.06
102,0.17,0.64,2.75,0.02,-0.06,1.06
103,0.49,0.61,2.35,0.02,-0.07,1.07
104,-0.09,0.64,2.34,0.02,-0.07,1.07
105,-0.70,0.18,1.74,0.03,-0.06,1.07
106,-0.32,0.27,1.86,0.03,-0.06,1.07
107,0.35,0.05,2.66,0.03,-0.07,1.06
108,0.27,0.66,2.84,0.03,-0.06,1.06
109,-0.02,0.56,2.27,0.03,-0.06,1.07
110,-0.12,0.49,2.12,0.02,-0.07,1.07
111,0.31,0.69,2.58,0.03,-0.07,1.07
112,0.31,0.90,2.15,0.03,-0.07,1.06
113,0.67,0.81,1.62,0.02,-0.08,1.07
114,0.60,0.64,2.23,0.02,-0.07,1.06
115,-0.03,0.95,2.20,0.02,-0.06,1.07
116,0.12,0.98,1.95,0.02,-0.06,1.06
117,0.29,0.92,2.27,0.01,-0.07,1.07
118,0.00,0.89,2.58,0.01,-0.06,1.06
119,-0.05,0.50,1.91,0.02,-0.07,1.06
120,-0.08,0.56,1.59,0.01,-0.07,1.07
121,-0.09,0.43,2.41,0.01,-0.07,1.07
122,-0.21,0.12,2.43,0.01,-0.06,1.07
123,0.44,0.15,2.38,0.01,-0.06,1.06
124,0.35,-0.14,2.63,0.01,-0.06,1.06
125,-0.15,0.03,2.56,0.02,-0.07,1.07
126,0.08,0.18,2.20,0.03,-0.07,1.06
127,0.58,-0.21,2.61,0.02,-0.07,1.06
128,0.05,0.11,2.35,0.02,-0.06,1.06
129,-0.32,0.17,1.66,0.03,-0.06,1.07
130,-0.14,0.34,1.50,0.03,-0.07,1.07
131,-0.08,0.63,2.23,0.03,-0.06,1.06
132,-0.31,0.81,1.62,0.02,-0.07,1.06
133,0.09,1.08,1.30,0.02,-0.07,1.07
134,0.20,0.85,1.79,0.02,-0.07,1.07
135,0.27,0.56,1.83,0.02,-0.06,1.06
136,0.29,0.38,1.18,0.02,-0.06,1.07
137,0.61,0.58,1.45,0.02,-0.07,1.07
138,0.15,0.64,1.68,0.02,-0.06,1.07
139,0.21,0.73,1.10,0.02,-0.06,1.07
140,0.79,0.75,1.33,0.01,-0.07,1.07
141,0.47,0.52,1.83,0.02,-0.06,1.07
142,-0.11,0.52,1.37,0.02,-0.06,1.07
143,0.05,0.34,1.02,0.02,-0.07,1.07
144,-0.02,0.12,1.51,0.02,-0.07,1.07
145,-0.32,0.64,1.53,0.02,-0.06,1.06
146,0.03,0.76,1.39,0.02,-0.07,1.07
147,0.55,0.64,1.79,0.02,-0.07,1.07
148,0.21,0.40,1.47,0.02,-0.07,1.06
149,-0.46,0.15,1.01,0.01,-0.07,1.07
150,0.06,0.11,1.21,0.02,-0.07,1.08
151,0.44,-0.12,2.06,0.02,-0.06,1.06
152,0.35,0.11,1.24,0.02,-0.06,1.06
153,0.34,0.15,0.85,0.03,-0.07,1.07
154,0.26,0.23,1.33,0.02,-0.07,1.07
155,0.47,0.20,1.74,0.02,-0.07,1.07
156,0.47,-0.05,1.01,0.02,-0.07,1.06
157,0.89,0.09,0.66,0.02,-0.07,1.06
158,0.18,0.02,0.78,0.02,-0.07,1.06
159,0.23,0.46,0.81,0.03,-0.06,1.07
160,0.56,0.61,0.75,0.02,-0.07,1.06
161,0.44,0.35,1.34,0.02,-0.07,1.07
162,0.34,0.44,1.27,0.02,-0.06,1.07
163,0.50,0.34,0.98,0.02,-0.06,1.07
164,0.78,0.26,1.25,0.01,-0.07,1.08
165,0.15,0.06,1.66,0.02,-0.06,1.07
166,0.06,0.03,0.69,0.02,-0.06,1.06
167,0.15,-0.18,1.11,0.02,-0.06,1.07
168,0.17,-0.14,1.73,0.02,-0.07,1.07
169,0.18,0.11,1.22,0.02,-0.07,1.06
170,0.47,0.44,0.84,0.02,-0.07,1.07
171,0.34,0.14,0.98,0.03,-0.07,1.06
172,-0.11,-0.23,0.64,0.02,-0.06,1.06
173,0.21,0.37,0.38,0.03,-0.06,1.06
174,0.49,0.35,0.85,0.02,-0.07,1.07
175,0.15,0.49,1.01,0.02,-0.06,1.07
176,0.06,0.56,0.41,0.02,-0.07,1.07
177,0.50,0.43,0.27,0.02,-0.07,1.07
178,0.35,0.70,0.52,0.01,-0.06,1.07
179,0.21,0.58,0.63,0.02,-0.06,1.06
180,0.26,0.27,0.24,0.02,-0.06,1.07
181,0.23,0.06,0.92,0.02,-0.07,1.08
182,0.50,0.12,0.99,0.02,-0.06,1.06
183,0.79,0.20,0.84,0.02,-0.07,1.06
184,0.64,0.17,0.72,0.02,-0.06,1.07
185,0.34,-0.14,0.81,0.02,-0.07,1.08
186,0.12,-0.05,0.32,0.03,-0.06,1.07
187,0.05,0.17,0.17,0.02,-0.06,1.06
188,0.05,0.17,0.53,0.02,-0.07,1.07
189,-0.15,0.21,0.63,0.03,-0.06,1.06
190,0.35,0.26,0.75,0.02,-0.07,1.07
191,0.61,0.47,0.99,0.02,-0.07,1.07
192,0.06,-0.05,0.99,0.02,-0.06,1.06
193,0.26,0.21,0.66,0.03,-0.06,1.06
194,0.47,0.12,0.56,0.02,-0.07,1.06
195,0.38,0.43,0.95,0.02,-0.06,1.06
196,0.41,0.24,0.89,0.03,-0.06,1.06
197,0.52,-0.02,0.64,0.02,-0.07,1.07
198,0.50,0.37,0.81,0.02,-0.07,1.07
199,0.00,0.35,0.55,0.02,-0.06,1.07
200,0.17,0.41,0.35,0.03,-0.06,1.07
201,0.72,0.08,0.81,0.02,-0.07,1.06
202,0.34,0.32,0.84,0.02,-0.06,1.07
203,0.06,0.40,0.40,0.02,-0.07,1.06
204,0.06,0.24,0.18,0.01,-0.07,1.07
205,-0.14,0.14,0.70,0.02,-0.06,1.07
206,-0.17,-0.03,0.78,0.02,-0.06,1.07
207,0.49,0.03,0.79,0.02,-0.07,1.07
208,0.69,0.12,1.62,0.02,-0.07,1.07
209,0.00,0.31,1.11,0.02,-0.06,1.06
210,-0.06,0.21,0.44,0.01,-0.06,1.06
211,-0.18,0.24,0.78,0.02,-0.07,1.06
212,0.06,0.20,1.27,0.01,-0.07,1.07
213,0.02,0.08,0.72,0.02,-0.07,1.06
214,0.27,0.02,0.63,0.02,-0.07,1.06
215,0.06,0.08,1.18,0.02,-0.07,1.07
216,-0.06,0.00,0.76,0.02,-0.06,1.07
217,-0.02,0.21,0.55,0.03,-0.07,1.06
218,0.02,0.41,0.85,0.03,-0.07,1.05
219,0.18,0.35,1.07,0.03,-0.07,1.06
220,0.87,0.60,1.13,0.03,-0.06,1.06
221,0.96,0.84,1.25,0.02,-0.06,1.07
222,0.90,0.53,1.71,0.02,-0.06,1.07
223,0.52,0.49,1.62,0.02,-0.05,1.07
224,0.64,0.66,1.39,0.02,-0.07,1.07
225,0.38,-0.09,1.40,0.01,-0.07,1.07
226,-0.14,-0.32,1.16,0.02,-0.07,1.06
227,-0.11,0.17,0.75,0.02,-0.06,1.07
228,0.00,0.00,1.22,0.02,-0.06,1.06
229,-0.31,0.08,1.47,0.02,-0.07,1.06
230,-0.15,0.47,1.07,0.02,-0.06,1.06
231,0.21,0.44,1.22,0.02,-0.06,1.06
232,0.49,0.34,1.76,0.03,-0.06,1.06
233,0.41,0.67,0.85,0.03,-0.07,1.07
234,0.06,0.58,0.55,0.02,-0.07,1.07
235,0.15,0.44,0.89,0.02,-0.07,1.07
236,0.26,0.67,1.39,0.03,-0.06,1.06
237,0.44,1.07,1.15,0.02,-0.06,1.06
238,0.69,1.08,1.27,0.03,-0.07,1.06
239,0.29,0.98,1.76,0.02,-0.07,1.06
240,0.37,1.01,1.39,0.02,-0.06,1.07
241,0.38,0.95,1.19,0.01,-0.07,1.07
242,0.41,0.67,1.73,0.01,-0.06,1.07
243,-0.11,0.50,1.44,0.01,-0.06,1.07
244,0.11,0.70,1.24,0.02,-0.06,1.07
245,0.18,0.34,1.48,0.02,-0.07,1.07
246,0.03,0.24,1.63,0.02,-0.06,1.07
247,0.17,0.17,1.28,0.02,-0.06,1.07
248,0.38,0.14,1.27,0.03,-0.06,1.06
249,0.08,0.21,1.68,0.02,-0.05,1.06
250,0.38,0.50,1.91,0.02,-0.05,1.06
251,0.31,0.44,1.66,0.02,-0.07,1.06
252,-0.12,0.23,1.53,0.02,-0.07,1.07
253,-0.38,0.50,1.76,0.03,-0.06,1.06
254,-0.06,0.50,1.27,0.03,-0.07,1.06
255,0.12,0.84,1.18,0.02,-0.07,1.07
256,0.03,0.96,1.56,0.03,-0.06,1.07
257,-0.11,0.89,1.30,0.03,-0.06,1.07
258,0.58,1.22,1.47,0.02,-0.07,1.07
259,0.67,1.04,1.91,0.02,-0.06,1.07
260,0.43,0.96,1.39,0.02,-0.06,1.07
261,0.43,0.84,1.10,0.02,-0.06,1.07
262,0.60,0.64,1.69,0.01,-0.06,1.06
263,0.29,0.99,1.85,0.01,-0.06,1.06
264,-0.26,0.95,1.15,0.01,-0.06,1.07
265,0.23,0.41,1.53,0.02,-0.06,1.07
266,0.38,0.09,2.02,0.01,-0.06,1.07
267,0.09,0.06,1.28,0.02,-0.06,1.06
268,0.00,0.11,0.99,0.01,-0.07,1.07
269,-0.21,0.18,1.42,0.02,-0.06,1.07
270,-0.03,0.15,1.47,0.02,-0.07,1.06
271,-0.02,0.50,0.67,0.03,-0.07,1.06
272,0.05,0.27,1.04,0.02,-0.07,1.06
273,-0.17,0.31,1.28,0.02,-0.07,1.06
274,0.08,0.52,1.10,0.03,-0.06,1.07
275,0.43,0.61,1.59,0.03,-0.06,1.06
276,0.44,0.52,1.63,0.02,-0.06,1.07
277,0.00,0.95,0.79,0.02,-0.06,1.06
278,0.08,0.58,0.81,0.02,-0.07,1.07
279,0.46,0.56,1.83,0.02,-0.07,1.06
280,0.52,0.81,1.63,0.02,-0.06,1.06
281,0.52,1.02,1.07,0.01,-0.06,1.07
282,0.29,0.69,0.93,0.01,-0.06,1.08
283,-0.14,0.29,1.11,0.02,-0.06,1.07
284,-0.05,0.46,1.02,0.01,-0.06,1.07
285,0.40,0.40,1.07,0.01,-0.07,1.07
286,0.29,0.11,1.05,0.02,-0.07,1.07
287,-0.08,0.12,0.64,0.02,-0.06,1.06
288,-0.27,0.15,0.47,0.02,-0.06,1.07
289,-0.17,0.05,0.58,0.01,-0.06,1.06
290,-0.41,-0.38,1.16,0.02,-0.06,1.07
291,0.32,0.27,1.33,0.03,-0.07,1.06
292,0.69,0.44,1.51,0.02,-0.07,1.06
293,0.46,0.55,1.73,0.02,-0.07,1.06
294,0.21,0.50,1.25,0.02,-0.07,1.06
295,0.31,0.44,0.66,0.02,-0.06,1.06
296,-0.06,0.67,0.73,0.02,-0.06,1.08
297,0.08,0.63,1.15,0.02,-0.06,1.07
298,0.17,0.41,0.99,0.02,-0.06,1.06
299,0.43,0.40,0.89,0.02,-0.06,1.07
300,-0.08,0.29,0.98,0.02,-0.05,1.07
301,-0.17,0.26,0.76,0.01,-0.07,1.07
302,0.18,0.27,0.96,0.02,-0.07,1.07
303,0.31,0.21,1.39,0.02,-0.06,1.07
304,0.09,0.38,0.69,0.02,-0.06,1.07
305,0.43,0.49,0.61,0.02,-0.07,1.07
306,0.40,0.24,1.16,0.01,-0.06,1.07
307,0.49,0.00,1.04,0.02,-0.06,1.07
308,0.58,0.14,1.11,0.02,-0.06,1.06
309,0.52,-0.09,1.02,0.02,-0.07,1.06
310,-0.12,0.06,0.99,0.02,-0.06,1.07
311,-0.43,0.06,0.40,0.02,-0.06,1.06
312,-0.17,0.21,0.15,0.03,-0.06,1.06
313,-0.12,0.47,0.46,0.02,-0.07,1.06
314,0.06,0.50,0.79,0.02,-0.06,1.06
315,0.46,0.73,1.02,0.02,-0.06,1.07
316,0.46,0.78,1.33,0.02,-0.07,1.06
317,0.06,0.44,1.21,0.02,-0.06,1.07
318,0.20,0.27,0.73,0.02,-0.06,1.07
319,0.29,0.06,0.49,0.02,-0.07,1.07
320,-0.05,-0.12,0.85,0.02,-0.06,1.06
321,-0.05,0.00,0.61,0.02,-0.06,1.07
322,0.00,0.44,0.79,0.02,-0.06,1.07
323,0.38,0.37,1.48,0.03,-0.06,1.07
324,0.24,0.31,1.25,0.02,-0.06,1.06
325,0.18,0.64,0.49,0.02,-0.06,1.06
326,0.32,0.17,0.69,0.02,-0.07,1.07
327,-0.09,0.20,1.18,0.02,-0.06,1.07
328,0.43,-0.15,1.11,0.01,-0.06,1.07
329,0.53,-0.09,1.16,0.01,-0.06,1.07
330,0.24,-0.44,0.95,0.02,-0.06,1.06
331,-0.40,-0.66,0.44,0.02,-0.06,1.06
332,-0.34,-0.26,0.20,0.02,-0.06,1.06
333,0.08,0.05,0.85,0.02,-0.07,1.07
334,-0.20,-0.29,0.87,0.02,-0.07,1.07
335,-0.09,-0.32,0.49,0.02,-0.07,1.07
336,0.23,-0.26,0.78,0.03,-0.07,1.06
337,-0.17,0.05,0.49,0.02,-0.07,1.05
338,-0.15,0.37,0.31,0.03,-0.07,1.06
339,0.32,0.60,0.76,0.02,-0.06,1.07
340,0.67,0.72,1.36,0.03,-0.07,1.06
341,0.17,1.18,1.21,0.02,-0.05,1.06
342,0.52,1.11,0.72,0.02,-0.06,1.07
343,0.27,0.98,0.98,0.02,-0.06,1.07
344,-0.05,0.87,0.78,0.02,-0.06,1.07
345,-0.23,0.79,0.17,0.01,-0.06,1.08
346,0.09,0.64,0.58,0.01,-0.06,1.06
347,-0.27,-0.05,0.63,0.01,-0.06,1.07
348,-0.38,0.12,0.38,0.01,-0.06,1.07
349,-0.17,-0.26,0.14,0.02,-0.06,1.07
350,-0.31,-0.35,0.67,0.02,-0.06,1.06
351,-0.14,-0.05,0.89,0.01,-0.06,1.07
352,0.27,-0.17,1.08,0.02,-0.07,1.07
353,0.21,0.09,1.50,0.02,-0.07,1.07
354,-0.06,-0.09,1.53,0.02,-0.06,1.06
355,-0.09,0.35,1.22,0.02,-0.06,1.07
356,0.06,0.15,1.30,0.03,-0.07,1.07
357,-0.03,0.31,1.31,0.03,-0.07,1.07
358,0.09,0.09,0.89,0.03,-0.07,1.07
359,0.35,0.40,0.73,0.02,-0.06,1.07
360,0.21,0.43,0.92,0.03,-0.07,1.07
361,0.05,0.67,0.96,0.02,-0.07,1.06
362,0.17,0.41,0.35,0.02,-0.06,1.07
363,0.34,0.63,1.02,0.03,-0.06,1.06
364,0.35,0.63,1.40,0.02,-0.06,1.06
365,0.44,0.70,1.08,0.02,-0.07,1.07
366,0.50,0.44,1.16,0.01,-0.06,1.06
367,0.35,0.08,1.27,0.01,-0.06,1.07
368,-0.05,0.15,0.78,0.02,-0.06,1.06
369,0.15,0.24,0.41,0.01,-0.06,1.07
370,-0.15,0.05,0.58,0.01,-0.06,1.06
371,-0.41,0.08,0.60,0.02,-0.06,1.06
372,-0.35,0.32,0.69,0.01,-0.06,1.06
373,0.08,0.26,1.27,0.02,-0.06,1.06
374,0.12,0.06,1.18,0.02,-0.06,1.07
375,-0.37,-0.03,0.61,0.02,-0.07,1.07
376,-0.61,0.03,0.50,0.02,-0.07,1.07
377,-0.78,-0.11,0.38,0.02,-0.06,1.07
378,-0.79,0.26,0.20,0.03,-0.06,1.06
379,-0.50,0.15,0.11,0.03,-0.06,1.06
380,-0.47,0.37,0.64,0.02,-0.06,1.06
381,-0.32,0.69,0.76,0.02,-0.06,1.06
382,-0.15,0.64,0.46,0.03,-0.06,1.07
383,-0.03,0.66,0.78,0.02,-0.07,1.07
384,-0.21,0.52,1.01,0.02,-0.07,1.07
385,0.03,0.24,0.73,0.03,-0.06,1.07
386,0.24,0.08,0.34,0.02,-0.07,1.07
387,-0.20,0.24,0.81,0.02,-0.07,1.07
388,-0.60,0.11,0.69,0.02,-0.06,1.07
389,0.11,0.23,0.66,0.02,-0.06,1.07
390,0.24,0.08,0.81,0.02,-0.06,1.07
391,-0.18,-0.05,0.99,0.02,-0.06,1.07
392,-0.12,0.03,0.84,0.02,-0.06,1.06
393,0.23,0.15,0.75,0.02,-0.07,1.07
394,-0.40,-0.14,0.72,0.03,-0.06,1.07
395,-0.79,0.20,-0.05,0.03,-0.07,1.06
396,-0.09,0.41,0.49,0.02,-0.06,1.06
397,0.23,0.37,1.53,0.02,-0.07,1.07
398,0.14,0.46,0.96,0.02,-0.07,1.07
399,0.24,0.49,0.76,0.02,-0.06,1.07
400,0.32,0.12,1.28,0.02,-0.06,1.07
401,-0.15,0.05,0.96,0.02,-0.07,1.06
402,-0.27,0.29,0.35,0.02,-0.06,1.07
403,0.32,0.27,1.07,0.02,-0.07,1.07
404,0.70,0.58,1.86,0.02,-0.07,1.06
405,0.93,0.66,1.86,0.02,-0.07,1.07
406,0.75,0.50,1.22,0.02,-0.07,1.07
407,0.27,0.38,1.33,0.02,-0.06,1.08
408,-0.09,0.06,1.25,0.02,-0.07,1.07
409,0.61,0.06,1.24,0.03,-0.07,1.07
410,0.47,0.15,1.44,0.03,-0.06,1.07
411,0.12,0.24,1.47,0.02,-0.06,1.06
412,0.03,0.21,0.79,0.01,-0.06,1.07
413,0.15,0.06,0.96,0.01,-0.06,1.07
414,0.14,-0.14,1.86,0.03,-0.07,1.06
415,0.14,0.21,1.37,0.02,-0.06,1.06
416,0.46,0.35,1.18,0.02,-0.07,1.07
417,0.24,0.11,1.82,0.03,-0.07,1.07
418,0.32,0.18,1.94,0.02,-0.07,1.07
419,0.23,0.02,1.31,0.02,-0.07,1.07
420,0.46,-0.05,1.48,0.02,-0.07,1.07
421,0.23,0.26,1.62,0.02,-0.06,1.06
422,0.29,0.34,1.28,0.03,-0.06,1.07
423,0.52,0.38,1.05,0.03,-0.07,1.06
424,0.20,0.32,1.27,0.03,-0.07,1.07
425,0.18,0.15,1.21,0.02,-0.06,1.07
426,0.31,0.14,0.73,0.02,-0.06,1.07
427,0.50,0.43,1.30,0.02,-0.06,1.07
428,0.64,0.49,1.95,0.02,-0.07,1.07
429,1.02,0.35,1.68,0.02,-0.07,1.07
430,0.87,0.14,1.66,0.01,-0.06,1.07
431,0.47,-0.21,1.95,0.01,-0.06,1.07
432,0.31,-0.03,1.34,0.01,-0.06,1.07
433,0.32,-0.26,1.53,0.01,-0.07,1.06
434,0.40,-0.38,1.83,0.03,-0.07,1.07
435,-0.02,0.15,1.50,0.02,-0.07,1.06
436,-0.32,-0.05,1.13,0.02,-0.06,1.07
437,0.02,0.02,1.21,0.03,-0.06,1.06
438,0.00,-0.20,1.18,0.02,-0.06,1.06
439,0.03,0.21,0.44,0.03,-0.07,1.07
440,0.21,0.32,0.72,0.03,-0.07,1.06
441,-0.15,0.11,0.98,0.02,-0.06,1.06
442,0.21,0.26,0.76,0.03,-0.06,1.07
443,0.18,0.69,0.61,0.02,-0.06,1.06
444,0.26,0.44,1.51,0.02,-0.06,1.07
445,0.29,0.72,1.76,0.03,-0.06,1.06
446,0.93,1.05,1.59,0.02,-0.06,1.06
447,1.16,0.79,1.89,0.02,-0.07,1.07
448,0.93,0.63,1.66,0.01,-0.06,1.07
449,0.82,0.76,1.48,0.01,-0.07,1.07
450,0.64,0.32,1.27,0.01,-0.06,1.07
451,0.17,0.23,1.37,0.01,-0.06,1.06
452,0.21,-0.09,1.10,0.02,-0.06,1.07
453,0.29,0.18,0.98,0.02,-0.06,1.07
454,0.38,0.00,1.57,0.02,-0.06,1.06
455,0.03,0.14,1.33,0.02,-0.06,1.06
456,-0.09,0.06,0.96,0.02,-0.06,1.07
457,-0.17,-0.20,1.08,0.02,-0.07,1.07
458,-0.05,-0.08,1.24,0.03,-0.07,1.06
459,-0.29,0.17,0.84,0.03,-0.06,1.07
460,-0.29,0.15,1.01,0.03,-0.07,1.06
461,-0.11,0.44,1.51,0.02,-0.06,1.07
462,0.49,0.63,1.65,0.02,-0.07,1.07
463,0.40,0.55,1.44,0.02,-0.06,1.06
464,0.40,0.60,1.39,0.02,-0.06,1.06
465,0.20,0.43,1.57,0.02,-0.06,1.07
466,0.34,0.46,0.98,0.02,-0.07,1.07
467,0.41,0.05,1.10,0.02,-0.07,1.06
468,0.32,0.37,1.27,0.02,-0.07,1.07
469,0.40,0.41,1.30,0.02,-0.06,1.06
470,0.58,0.40,1.05,0.02,-0.06,1.07
471,0.15,0.24,1.07,0.02,-0.06,1.07
472,-0.11,0.37,0.98,0.02,-0.06,1.07
473,-0.11,0.23,0.66,0.02,-0.07,1.06
474,0.15,0.26,1.37,0.03,-0.07,1.06
475,0.47,0.31,1.47,0.02,-0.06,1.06
476,0.29,0.20,0.84,0.02,-0.07,1.07
477,0.09,0.12,0.89,0.02,-0.07,1.06
478,0.27,0.17,1.34,0.03,-0.06,1.07
479,0.47,0.11,1.02,0.02,-0.06,1.07
480,0.34,0.21,0.90,0.03,-0.06,1.06
481,0.11,0.67,1.02,0.03,-0.07,1.08
482,0.00,0.64,0.92,0.03,-0.07,1.07
483,0.21,0.75,0.89,0.02,-0.07,1.06
484,0.35,0.49,1.13,0.02,-0.07,1.06
485,0.32,0.44,1.15,0.01,-0.06,1.07
486,-0.08,0.47,0.56,0.02,-0.06,1.07
487,-0.18,0.26,0.53,0.02,-0.07,1.07
488,0.06,0.18,1.07,0.02,-0.06,1.07
489,0.14,0.14,1.08,0.01,-0.06,1.07
490,0.32,0.00,1.02,0.03,-0.06,1.06
491,0.32,0.23,1.56,0.02,-0.07,1.08
492,0.44,0.47,1.33,0.03,-0.07,1.07
493,0.32,0.26,0.99,0.03,-0.06,1.07
494,-0.08,0.12,1.04,0.02,-0.07,1.08
495,0.05,0.21,0.75,0.02,-0.06,1.06
496,-0.02,0.53,0.67,0.02,-0.06,1.07
497,0.05,0.60,0.96,0.02,-0.06,1.07
498,0.20,0.58,1.33,0.02,-0.06,1.07
499,0.44,0.23,1.39,0.02,-0.06,1.07
500,0.34,0.32,0.85,0.02,-0.07,1.07
501,0.08,0.15,0.76,0.02,-0.06,1.06
502,0.05,0.55,0.96,0.03,-0.06,1.06
503,0.26,0.44,0.87,0.02,-0.06,1.06
504,0.49,0.73,1.05,0.02,-0.06,1.07
505,0.26,0.84,1.42,0.02,-0.06,1.07
506,0.21,0.67,1.24,0.01,-0.06,1.06
507,0.35,0.31,0.98,0.03,-0.06,1.07
508,0.24,0.34,1.07,0.02,-0.07,1.07
509,-0.14,0.31,0.64,0.02,-0.07,1.07
510,-0.35,0.34,0.14,0.02,-0.06,1.06
511,-0.37,0.24,0.63,0.02,-0.06,1.06
512,0.12,0.12,1.13,0.02,-0.06,1.07
513,0.63,0.37,1.37,0.02,-0.07,1.06
514,0.70,0.47,1.19,0.02,-0.06,1.07
515,0.55,0.23,1.04,0.02,-0.07,1.05
516,0.09,0.53,1.22,0.02,-0.06,1.07
517,0.17,0.27,1.34,0.02,-0.07,1.06
518,0.32,0.55,1.24,0.02,-0.06,1.07
519,0.24,0.03,1.11,0.02,-0.06,1.06
520,0.05,0.24,1.01,0.02,-0.05,1.07
521,0.00,-0.11,1.01,0.02,-0.06,1.06
522,-0.31,0.27,1.13,0.02,-0.06,1.06
523,0.11,0.38,1.45,0.02,-0.06,1.06
524,0.61,0.49,1.54,0.02,-0.06,1.07
525,0.38,0.32,1.56,0.02,-0.06,1.07
526,0.35,0.52,1.39,0.02,-0.06,1.06
527,0.21,0.34,1.13,0.02,-0.06,1.07
528,0.02,0.21,1.08,0.02,-0.06,1.06
529,-0.11,0.24,1.07,0.02,-0.06,1.06
530,-0.02,0.26,1.34,0.02,-0.06,1.07
531,0.27,0.31,1.37,0.02,-0.07,1.07
532,0.09,0.17,1.39,0.02,-0.06,1.07
533,-0.23,0.00,1.04,0.02,-0.06,1.07
534,0.12,0.32,1.15,0.03,-0.06,1.07
535,0.09,0.20,1.51,0.02,-0.06,1.06
536,-0.02,0.15,1.24,0.03,-0.06,1.07
537,0.32,0.17,1.13,0.03,-0.06,1.08
538,0.24,0.44,1.42,0.02,-0.06,1.06
539,0.40,0.40,1.57,0.02,-0.06,1.06
540,0.67,0.84,1.04,0.03,-0.06,1.07
541,0.35,0.61,0.92,0.02,-0.06,1.06
542,-0.09,0.75,0.95,0.03,-0.06,1.06
543,0.15,1.01,1.19,0.02,-0.06,1.07
544,0.43,1.05,0.99,0.02,-0.07,1.06
545,-0.02,0.95,1.04,0.02,-0.07,1.06
546,-0.02,0.90,0.85,0.01,-0.06,1.07
547,0.38,1.16,0.92,0.01,-0.06,1.07
548,0.43,0.66,1.54,0.01,-0.06,1.08
549,0.09,0.44,1.39,0.01,-0.06,1.07
550,0.35,0.50,1.47,0.02,-0.06,1.08
551,0.34,0.35,1.53,0.01,-0.06,1.06
552,0.02,0.38,1.51,0.01,-0.06,1.06
553,-0.46,0.21,0.96,0.01,-0.06,1.07
554,-0.23,-0.03,0.98,0.01,-0.07,1.07
555,-0.21,-0.27,1.31,0.02,-0.07,1.07
556,-0.70,0.20,0.81,0.03,-0.06,1.07
557,-0.46,0.12,0.81,0.02,-0.07,1.07
558,-0.21,0.14,1.34,0.02,-0.07,1.06
559,0.00,0.32,1.79,0.02,-0.07,1.07
560,0.66,0.70,1.69,0.03,-0.07,1.07
561,0.92,0.87,1.82,0.03,-0.07,1.06
562,0.52,0.82,1.36,0.02,-0.07,1.07
563,0.05,0.66,0.76,0.02,-0.06,1.07
564,-0.15,0.55,0.92,0.02,-0.06,1.06
565,0.15,0.64,1.25,0.03,-0.06,1.06
566,0.15,0.66,0.85,0.02,-0.06,1.08
567,0.20,0.60,0.60,0.02,-0.07,1.07
568,0.03,0.52,0.49,0.02,-0.07,1.07
569,-0.38,0.37,0.95,0.02,-0.06,1.06
570,-0.09,0.15,0.93,0.01,-0.07,1.06
571,0.11,0.32,1.01,0.02,-0.07,1.07
572,-0.03,0.46,1.28,0.02,-0.06,1.06
573,0.03,0.73,1.19,0.02,-0.06,1.05
574,0.12,0.34,1.11,0.02,-0.06,1.06
575,-0.15,0.47,1.24,0.03,-0.06,1.07
576,-0.17,0.49,1.21,0.02,-0.06,1.06
577,0.15,0.78,1.30,0.02,-0.06,1.07
578,0.43,0.79,1.59,0.02,-0.07,1.06
579,0.05,0.63,1.34,0.03,-0.05,1.07
580,0.29,0.82,1.66,0.02,-0.06,1.07
581,0.61,0.67,1.40,0.02,-0.06,1.07
582,0.12,0.84,1.11,0.02,-0.07,1.06
583,-0.63,0.82,0.49,0.02,-0.06,1.06
584,-0.31,0.67,0.73,0.02,-0.07,1.06
585,0.64,0.24,1.33,0.01,-0.07,1.07
586,0.29,0.55,0.92,0.02,-0.07,1.06
587,0.26,0.35,0.47,0.02,-0.06,1.07
588,0.18,0.12,0.92,0.02,-0.07,1.07
589,0.26,0.49,1.27,0.02,-0.06,1.05
590,0.43,0.60,0.81,0.03,-0.06,1.08
591,0.73,0.50,0.99,0.02,-0.06,1.07
592,0.31,0.29,1.04,0.02,-0.06,1.07
593,0.11,0.24,0.56,0.02,-0.06,1.07
594,0.15,0.06,0.47,0.02,-0.06,1.06
595,0.08,0.34,0.67,0.02,-0.06,1.06
596,-0.17,0.52,0.72,0.02,-0.06,1.07
597,0.02,0.41,0.60,0.02,-0.06,1.07
598,0.05,0.72,0.67,0.02,-0.07,1.06
599,-0.24,0.55,0.81,0.02,-0.06,1.06
600,-0.26,0.44,0.23,0.02,-0.06,1.07
601,0.18,0.46,0.72,0.02,-0.06,1.06
602,0.26,0.37,1.27,0.02,-0.06,1.07
603,0.35,0.49,1.01,0.02,-0.06,1.06
604,0.12,0.61,0.66,0.02,-0.06,1.06
605,0.29,0.55,1.27,0.02,-0.07,1.06
606,0.38,0.46,1.22,0.01,-0.06,1.07
607,0.12,0.46,0.90,0.02,-0.06,1.06
608,0.21,0.46,1.18,0.02,-0.06,1.07
609,0.37,0.27,1.27,0.02,-0.06,1.06
610,0.37,0.34,1.31,0.01,-0.06,1.07
611,0.55,0.31,1.57,0.01,-0.07,1.07
612,0.82,0.15,2.14,0.02,-0.06,1.06
613,0.56,0.32,1.66,0.02,-0.07,1.06
614,0.50,0.76,1.22,0.02,-0.06,1.07
615,0.14,0.40,1.37,0.02,-0.06,1.07
616,0.05,0.38,1.37,0.01,-0.07,1.07
617,0.20,0.43,1.05,0.02,-0.06,1.07
618,0.08,0.20,1.01,0.02,-0.07,1.07
619,-0.02,0.06,1.28,0.02,-0.07,1.06
620,-0.14,0.21,0.76,0.02,-0.07,1.06
621,0.35,0.09,1.21,0.02,-0.05,1.07
622,0.43,0.03,1.40,0.03,-0.07,1.06
623,0.34,0.35,1.33,0.02,-0.06,1.05
624,0.38,0.21,1.05,0.02,-0.07,1.07
625,0.46,0.58,1.54,0.02,-0.07,1.07
626,0.20,0.29,1.25,0.01,-0.06,1.07
627,0.40,0.29,0.95,0.02,-0.06,1.07
628,0.12,0.09,0.85,0.02,-0.06,1.07
629,-0.52,-0.26,0.76,0.01,-0.06,1.06
630,-0.47,-0.34,0.82,0.02,-0.05,1.08
631,0.24,-0.18,1.51,0.01,-0.06,1.07
632,0.20,-0.12,1.82,0.02,-0.07,1.07
633,0.15,-0.08,1.62,0.02,-0.06,1.06
634,0.02,-0.08,1.04,0.02,-0.07,1.06
635,-0.09,-0.03,1.18,0.03,-0.07,1.07
636,0.23,0.20,1.24,0.02,-0.07,1.07
637,0.23,0.41,1.04,0.03,-0.07,1.08
638,0.49,0.37,0.82,0.02,-0.07,1.07
639,0.12,0.73,1.11,0.02,-0.06,1.06
640,-0.03,0.40,0.61,0.02,-0.06,1.06
641,0.14,0.61,0.90,0.02,-0.07,1.06
642,0.12,0.90,1.15,0.02,-0.06,1.06
643,0.06,1.11,1.05,0.02,-0.06,1.06
644,0.31,1.15,1.15,0.02,-0.07,1.06
645,0.69,1.02,1.59,0.02,-0.07,1.07
646,0.31,0.96,1.53,0.01,-0.07,1.06
647,0.14,0.79,1.16,0.02,-0.06,1.07
648,0.21,0.53,1.37,0.01,-0.06,1.07
649,0.21,0.14,1.63,0.01,-0.06,1.06
650,0.31,0.26,1.57,0.02,-0.06,1.07
651,0.52,0.05,1.53,0.01,-0.07,1.06
652,0.50,0.17,1.79,0.02,-0.06,1.07
653,-0.06,0.09,1.11,0.02,-0.06,1.07
654,-0.24,0.18,0.85,0.02,-0.06,1.07
655,-0.38,-0.21,0.87,0.01,-0.06,1.06
656,-0.47,0.08,1.28,0.02,-0.06,1.07
657,-0.14,0.06,1.01,0.02,-0.07,1.07
658,-0.21,0.06,1.31,0.03,-0.06,1.07
659,-0.32,0.58,1.44,0.03,-0.07,1.07
660,-0.56,0.35,1.02,0.03,-0.07,1.06
661,-0.03,0.41,1.30,0.03,-0.06,1.06
662,0.06,0.56,1.50,0.03,-0.06,1.07
663,0.08,0.64,1.57,0.03,-0.05,1.07
664,0.73,0.67,1.48,0.02,-0.07,1.07
665,0.64,0.58,1.66,0.02,-0.07,1.07
666,0.38,0.63,1.40,0.02,-0.06,1.07
667,0.17,0.38,1.02,0.01,-0.06,1.07
668,0.17,0.18,0.95,0.02,-0.07,1.07
669,-0.02,0.21,1.07,0.03,-0.07,1.07
670,-0.15,0.43,0.43,0.02,-0.06,1.07
671,-0.20,0.43,0.78,0.02,-0.06,1.06
672,-0.20,0.76,1.10,0.02,-0.06,1.06
673,-0.15,0.67,0.95,0.02,-0.06,1.07
674,0.43,0.52,1.36,0.02,-0.07,1.07
675,0.49,0.60,1.57,0.01,-0.06,1.07
676,0.26,0.31,1.65,0.02,-0.06,1.07
677,0.06,0.31,1.16,0.02,-0.06,1.06
678,-0.05,0.26,1.33,0.02,-0.06,1.08
679,-0.12,0.00,1.65,0.02,-0.06,1.06
680,0.17,0.26,1.30,0.02,-0.07,1.06
681,0.47,0.52,1.11,0.02,-0.07,1.08
682,0.21,0.17,1.13,0.03,-0.06,1.06
683,0.02,0.34,0.84,0.02,-0.07,1.07
684,0.18,0.66,0.60,0.02,-0.07,1.06
685,0.31,0.87,0.82,0.02,-0.06,1.08
686,0.17,0.63,0.82,0.02,-0.06,1.07
687,0.08,0.61,0.78,0.02,-0.06,1.07
688,0.17,0.35,0.84,0.02,-0.06,1.06
689,-0.02,0.40,1.33,0.02,-0.07,1.07
690,-0.24,0.34,1.16,0.01,-0.06,1.07
691,0.09,0.31,0.95,0.02,-0.07,1.07
692,-0.02,-0.11,1.15,0.02,-0.07,1.07
693,-0.29,-0.15,0.95,0.02,-0.06,1.07
694,-0.23,-0.06,0.76,0.02,-0.07,1.08
695,0.05,0.24,1.01,0.02,-0.07,1.06
696,0.02,0.26,1.22,0.03,-0.06,1.06
697,-0.05,0.43,0.79,0.02,-0.06,1.07
698,0.11,0.35,1.27,0.02,-0.06,1.06
699,0.49,0.41,1.66,0.02,-0.07,1.06
700,0.58,0.53,1.21,0.02,-0.07,1.07
701,0.72,0.69,0.89,0.02,-0.07,1.07
702,0.05,0.53,0.98,0.02,-0.06,1.07
703,-0.15,0.78,1.08,0.02,-0.06,1.06
704,0.35,0.73,0.73,0.02,-0.07,1.06
705,0.41,0.66,1.28,0.02,-0.07,1.07
706,0.26,0.75,1.24,0.01,-0.07,1.06
707,0.09,0.56,0.84,0.02,-0.07,1.08
708,0.06,0.46,0.63,0.01,-0.07,1.06
709,-0.24,0.00,1.22,0.01,-0.07,1.07
710,0.38,0.08,0.95,0.01,-0.06,1.07
711,0.76,0.26,1.04,0.02,-0.06,1.07
712,0.44,0.26,1.69,0.02,-0.06,1.06
713,-0.03,0.31,1.37,0.02,-0.06,1.06
714,0.26,0.32,0.75,0.01,-0.06,1.07
715,0.55,0.09,1.28,0.02,-0.07,1.07
716,-0.03,0.02,1.33,0.02,-0.07,1.06
717,0.09,0.20,0.90,0.03,-0.07,1.07
718,0.17,0.15,0.79,0.02,-0.06,1.07
719,-0.23,0.37,1.50,0.02,-0.07,1.06
720,-0.08,0.37,1.05,0.02,-0.07,1.07
721,-0.06,0.53,0.73,0.02,-0.06,1.06
722,0.06,0.15,1.21,0.02,-0.07,1.07
723,-0.29,0.24,1.28,0.02,-0.06,1.07
724,0.00,0.11,0.95,0.02,-0.07,1.07
725,0.46,0.18,1.27,0.02,-0.06,1.06
726,0.27,0.67,1.65,0.02,-0.06,1.07
727,0.47,0.38,1.07,0.02,-0.07,1.07
728,0.87,0.43,1.40,0.02,-0.07,1.08
729,0.73,0.00,1.56,0.02,-0.06,1.07
730,0.38,0.17,1.19,0.02,-0.06,1.08
731,0.46,-0.03,1.04,0.01,-0.06,1.07
732,0.08,-0.11,1.34,0.02,-0.06,1.08
733,-0.34,-0.15,1.21,0.02,-0.06,1.07
734,0.24,-0.43,1.04,0.01,-0.06,1.08
735,0.17,-0.20,1.30,0.02,-0.07,1.06
736,-0.09,-0.31,1.56,0.03,-0.06,1.07
737,-0.11,0.00,1.18,0.02,-0.06,1.07
738,-0.05,-0.09,0.89,0.02,-0.07,1.06
739,-0.20,0.29,1.10,0.03,-0.06,1.07
740,-0.09,0.49,0.93,0.03,-0.06,1.06
741,0.67,0.75,0.79,0.02,-0.07,1.07
742,0.40,0.60,1.19,0.02,-0.07,1.06
743,-0.09,0.84,0.98,0.03,-0.06,1.06
744,0.35,1.11,0.60,0.02,-0.06,1.07
745,0.35,1.27,0.75,0.02,-0.07,1.05
746,-0.06,0.89,1.02,0.02,-0.06,1.07
747,0.08,1.07,0.46,0.02,-0.07,1.08
748,0.60,0.87,1.25,0.01,-0.06,1.07
749,0.38,0.67,1.39,0.01,-0.06,1.07
750,0.35,0.20,0.87,0.01,-0.06,1.07
751,-0.03,-0.11,0.63,0.01,-0.06,1.07
752,-0.40,-0.32,1.04,0.02,-0.06,1.07
753,-0.21,-0.23,1.13,0.02,-0.06,1.06
754,0.49,0.21,1.21,0.02,-0.06,1.06
755,0.38,0.46,1.74,0.01,-0.07,1.07
756,0.15,0.14,1.74,0.02,-0.06,1.07
757,-0.02,0.00,1.22,0.02,-0.07,1.07
758,0.20,-0.21,1.25,0.02,-0.07,1.08
759,-0.32,-0.15,1.48,0.03,-0.06,1.06
760,-0.06,-0.43,1.08,0.03,-0.07,1.07
761,-0.02,0.17,1.15,0.03,-0.07,1.06
762,-0.11,0.23,1.57,0.03,-0.06,1.06
763,0.24,0.41,1.36,0.03,-0.07,1.07
764,0.55,0.53,0.96,0.02,-0.07,1.07
765,0.53,0.53,1.60,0.02,-0.06,1.08
766,0.26,0.70,1.10,0.02,-0.07,1.07
767,0.29,0.76,0.72,0.02,-0.06,1.07
768,0.35,0.93,0.90,0.02,-0.06,1.07
769,-0.06,0.53,1.16,0.02,-0.07,1.07
770,0.03,0.60,0.70,0.02,-0.06,1.08
771,0.05,0.58,0.60,0.01,-0.07,1.07
772,-0.11,0.44,1.18,0.02,-0.06,1.08
773,-0.15,0.46,1.22,0.02,-0.06,1.07
774,0.31,0.24,1.08,0.01,-0.06,1.08
775,0.76,0.32,1.59,0.02,-0.06,1.07
776,0.52,0.12,1.79,0.01,-0.06,1.07
777,0.56,-0.12,1.42,0.02,-0.06,1.07
778,0.49,0.02,1.33,0.02,-0.06,1.06
779,0.24,-0.06,1.54,0.02,-0.07,1.06
780,-0.05,0.27,0.87,0.02,-0.06,1.06
781,0.31,0.08,0.72,0.02,-0.06,1.06
782,0.08,0.40,1.51,0.03,-0.07,1.06
783,0.32,0.55,1.45,0.02,-0.06,1.07
784,0.47,0.75,1.05,0.02,-0.07,1.07
785,0.41,0.84,1.01,0.02,-0.07,1.06
786,0.00,0.31,1.31,0.02,-0.06,1.07
787,0.23,0.56,0.99,0.02,-0.07,1.06
788,0.35,0.61,1.07,0.01,-0.07,1.07
789,-0.09,0.50,0.96,0.01,-0.06,1.07
790,-0.12,0.55,1.15,0.02,-0.06,1.07
791,0.18,0.34,0.89,0.01,-0.06,1.08
792,0.05,0.12,1.27,0.02,-0.06,1.06
793,-0.21,0.31,1.33,0.01,-0.06,1.06
794,0.23,0.26,1.04,0.02,-0.07,1.08
795,-0.15,-0.03,0.98,0.02,-0.06,1.06
796,-0.23,-0.06,1.05,0.02,-0.06,1.07
797,0.00,0.20,0.78,0.02,-0.07,1.07
798,0.00,0.00,0.75,0.02,-0.06,1.07
799,-0.58,0.44,0.95,0.03,-0.06,1.06
800,-0.27,0.23,0.61,0.02,-0.06,1.07
801,0.08,0.37,0.90,0.02,-0.07,1.07
802,-0.20,0.37,1.28,0.02,-0.06,1.06
803,-0.17,0.75,1.13,0.02,-0.06,1.06
804,0.32,0.67,0.64,0.01,-0.06,1.06
805,0.44,0.66,1.25,0.02,-0.07,1.06
806,0.31,0.52,1.54,0.02,-0.07,1.07
807,-0.15,0.41,0.44,0.01,-0.07,1.06
808,-0.24,0.18,0.55,0.02,-0.07,1.07
809,-0.46,0.23,0.79,0.01,-0.07,1.07
810,-0.38,0.08,0.40,0.01,-0.06,1.06
811,-0.03,0.09,0.37,0.02,-0.07,1.06
812,-0.23,0.05,1.22,0.01,-0.06,1.07
813,-0.41,0.09,1.22,0.02,-0.06,1.06
814,0.03,-0.05,0.92,0.02,-0.07,1.07
815,-0.02,0.03,1.18,0.01,-0.06,1.06
816,-0.55,-0.32,0.64,0.03,-0.06,1.07
817,-0.53,-0.17,0.03,0.02,-0.06,1.07
818,0.09,0.05,0.66,0.02,-0.07,1.07
819,0.08,0.31,1.13,0.01,-0.06,1.07
820,0.35,0.35,0.64,0.03,-0.06,1.06
821,0.73,0.17,1.05,0.02,-0.07,1.06
822,0.34,0.34,1.28,0.02,-0.06,1.06
823,-0.11,0.12,0.76,0.03,-0.06,1.06
824,0.31,0.20,0.89,0.02,-0.07,1.07
825,0.55,0.34,1.51,0.02,-0.06,1.07
826,0.31,0.76,1.62,0.02,-0.07,1.06
827,0.44,0.82,1.15,0.02,-0.07,1.07
828,0.20,0.53,0.95,0.01,-0.07,1.07
829,-0.17,-0.20,1.45,0.02,-0.06,1.07
830,-0.09,-0.34,1.08,0.02,-0.06,1.08
831,0.23,-0.26,1.02,0.02,-0.07,1.07
832,0.20,-0.05,1.31,0.02,-0.06,1.06
833,0.08,0.20,0.90,0.02,-0.06,1.06
834,0.27,0.41,0.69,0.02,-0.07,1.06
835,0.50,0.23,1.37,0.02,-0.06,1.07
836,0.46,0.23,1.30,0.01,-0.06,1.08
837,0.38,0.12,0.78,0.02,-0.06,1.07
838,-0.14,-0.24,0.64,0.01,-0.06,1.07
839,-0.55,-0.21,0.79,0.03,-0.06,1.07
840,-0.35,-0.03,0.44,0.02,-0.06,1.07
841,-0.35,-0.15,0.76,0.02,-0.07,1.07
842,-0.40,-0.11,1.28,0.02,-0.06,1.06
843,-0.17,-0.17,0.98,0.02,-0.06,1.07
844,-0.14,-0.12,0.75,0.03,-0.07,1.07
845,-0.05,0.17,1.18,0.03,-0.07,1.06
846,-0.24,-0.02,0.72,0.03,-0.06,1.06
847,0.14,0.44,0.60,0.02,-0.08,1.06
848,0.26,0.18,1.22,0.02,-0.07,1.07
849,0.12,0.32,0.93,0.02,-0.07,1.06
850,0.02,0.67,0.24,0.02,-0.06,1.06
851,0.34,0.96,0.60,0.02,-0.07,1.06
852,0.05,0.75,0.98,0.02,-0.05,1.06
853,0.27,1.01,0.52,0.02,-0.06,1.07
854,0.27,0.85,0.50,0.02,-0.07,1.06
855,0.43,0.95,1.24,0.01,-0.07,1.07
856,0.18,0.63,1.50,0.02,-0.06,1.08
857,0.82,0.50,1.47,0.01,-0.07,1.08
858,0.52,0.29,1.33,0.01,-0.06,1.08
859,-0.18,-0.18,1.07,0.02,-0.06,1.07
860,-0.38,0.21,0.52,0.02,-0.07,1.07
861,0.00,0.43,0.76,0.02,-0.07,1.07
862,-0.05,0.06,1.45,0.02,-0.07,1.06
863,-0.05,-0.18,1.05,0.02,-0.07,1.07
864,-0.02,-0.20,0.84,0.02,-0.07,1.06
865,-0.76,-0.12,0.70,0.02,-0.06,1.07
866,-1.05,-0.02,0.55,0.03,-0.06,1.07
867,-0.38,0.05,0.90,0.03,-0.07,1.06
868,0.11,0.66,1.39,0.03,-0.06,1.06
869,-0.12,0.47,0.87,0.02,-0.07,1.07
870,0.05,0.44,0.60,0.02,-0.07,1.07
871,0.55,0.21,1.33,0.02,-0.07,1.06
872,-0.05,0.38,0.98,0.02,-0.06,1.06
873,-0.17,0.49,0.56,0.02,-0.06,1.06
874,0.27,0.44,0.89,0.02,-0.07,1.07
875,0.18,0.49,1.16,0.02,-0.06,1.06
876,0.09,0.55,0.85,0.02,-0.07,1.06
877,0.43,0.32,1.08,0.02,-0.07,1.06
878,0.35,0.21,1.36,0.01,-0.06,1.06
879,-0.06,-0.12,1.07,0.01,-0.07,1.06
880,-0.09,0.17,0.46,0.01,-0.06,1.07
881,-0.23,0.15,0.78,0.02,-0.06,1.07
882,-0.37,0.17,0.93,0.02,-0.06,1.07
883,-0.11,0.15,0.49,0.02,-0.06,1.07
884,0.12,0.50,0.92,0.02,-0.06,1.06
885,-0.21,0.02,1.15,0.03,-0.06,1.05
886,-0.47,-0.17,0.53,0.01,-0.06,1.07
887,-0.05,0.14,0.40,0.02,-0.07,1.06
888,0.03,0.32,0.98,0.02,-0.07,1.06
889,-0.17,0.41,0.58,0.02,-0.06,1.06
890,0.18,0.49,0.69,0.02,-0.07,1.06
891,0.49,0.56,0.93,0.02,-0.07,1.07
892,0.02,0.44,0.89,0.02,-0.07,1.06
893,0.08,0.70,0.61,0.02,-0.07,1.07
894,0.20,0.66,0.61,0.02,-0.07,1.06
895,0.17,0.29,0.98,0.02,-0.07,1.06
896,-0.03,0.55,0.50,0.02,-0.06,1.06
897,-0.11,0.47,0.17,0.02,-0.07,1.06
898,-0.27,0.15,0.52,0.02,-0.07,1.08
899,-0.35,0.23,0.41,0.02,-0.07,1.07
900,-0.06,0.32,-0.05,0.02,-0.06,1.07
901,-0.34,0.32,0.11,0.02,-0.07,1.07
902,-0.79,0.38,0.44,0.02,-0.06,1.06
903,-0.70,0.11,0.32,0.02,-0.06,1.07
904,0.12,0.26,1.10,0.02,-0.07,1.06
905,0.11,0.41,1.54,0.02,-0.06,1.07
906,-0.02,0.27,0.84,0.02,-0.06,1.07
907,0.12,0.41,0.63,0.02,-0.07,1.07
908,0.02,0.11,1.04,0.02,-0.07,1.06
909,0.06,0.06,0.85,0.02,-0.06,1.07
910,0.49,0.44,0.72,0.02,-0.07,1.06
911,0.69,0.31,0.98,0.02,-0.07,1.06
912,0.29,0.32,0.98,0.01,-0.07,1.07
913,0.20,0.46,0.44,0.01,-0.07,1.07
914,0.17,0.29,0.46,0.02,-0.07,1.07
915,-0.08,0.27,0.84,0.02,-0.06,1.07
916,0.17,0.21,0.70,0.02,-0.07,1.07
917,0.47,0.44,1.13,0.02,-0.07,1.08
918,0.32,0.18,1.71,0.02,-0.06,1.07
919,0.12,0.17,1.31,0.02,-0.07,1.07
920,0.06,0.05,1.01,0.02,-0.06,1.08
921,0.12,-0.18,1.18,0.02,-0.07,1.07
922,-0.17,0.06,1.39,0.02,-0.06,1.07
923,0.20,0.35,0.90,0.02,-0.06,1.06
924,0.43,0.08,1.05,0.02,-0.07,1.07
925,0.23,0.09,1.25,0.02,-0.06,1.07
926,0.08,0.23,0.82,0.02,-0.07,1.07
927,0.35,0.00,0.49,0.02,-0.08,1.08
928,0.29,-0.11,0.84,0.02,-0.06,1.06
929,0.08,0.40,0.95,0.03,-0.06,1.06
930,0.21,-0.02,0.52,0.03,-0.07,1.07
931,-0.03,0.26,1.27,0.02,-0.07,1.07
932,-0.44,0.27,0.63,0.02,-0.06,1.06
933,-0.23,0.27,0.38,0.03,-0.07,1.07
934,0.00,0.52,0.85,0.02,-0.07,1.06
935,0.35,0.37,0.76,0.02,-0.07,1.07
936,0.41,0.58,1.16,0.03,-0.07,1.07
937,0.15,0.05,0.31,0.01,-0.07,1.07
938,-0.18,0.52,0.79,0.03,-0.07,1.06
939,-0.06,0.43,0.58,0.02,-0.06,1.07
940,0.49,0.82,0.49,0.02,-0.07,1.07
941,0.72,0.47,1.54,0.02,-0.06,1.06
942,0.47,0.67,1.44,0.02,-0.06,1.06
943,0.47,0.64,0.85,0.01,-0.06,1.07
944,0.12,0.53,0.73,0.01,-0.07,1.07
945,-0.26,0.15,0.92,0.02,-0.06,1.07
946,-0.12,-0.02,0.47,0.01,-0.06,1.07
947,-0.31,-0.02,0.81,0.01,-0.07,1.06
948,-0.02,-0.05,1.63,0.02,-0.06,1.07
949,0.24,0.20,1.69,0.02,-0.06,1.07
950,0.49,0.17,1.34,0.02,-0.07,1.07
951,0.02,-0.09,1.50,0.03,-0.06,1.07
952,-0.21,-0.32,0.90,0.02,-0.06,1.07
953,0.15,-0.41,0.84,0.03,-0.07,1.07
954,0.02,-0.38,0.95,0.02,-0.07,1.07
955,-0.38,-0.31,0.95,0.03,-0.07,1.06
956,-0.12,0.00,0.66,0.02,-0.07,1.06
957,0.14,0.17,0.96,0.04,-0.07,1.06
958,0.20,0.23,1.21,0.03,-0.07,1.06
959,0.35,0.11,0.95,0.03,-0.07,1.06
960,0.49,0.24,0.49,0.03,-0.07,1.06
961,0.29,0.47,0.89,0.03,-0.06,1.06
962,-0.05,0.49,0.72,0.03,-0.06,1.07
963,0.23,0.56,0.63,0.02,-0.06,1.07
964,0.53,0.61,1.37,0.02,-0.07,1.06
965,0.76,0.95,1.62,0.02,-0.06,1.06
966,0.43,0.87,1.24,0.02,-0.06,1.06
967,0.12,0.89,0.99,0.02,-0.07,1.07
968,-0.08,0.93,1.59,0.02,-0.06,1.06
969,-0.08,0.78,1.31,0.01,-0.06,1.06
970,0.53,1.07,1.39,0.01,-0.06,1.07
971,1.01,1.05,1.80,0.02,-0.07,1.08
972,0.87,0.81,1.53,0.01,-0.06,1.09
973,0.58,0.05,0.63,0.01,-0.06,1.07
974,-0.27,-0.18,0.84,0.01,-0.07,1.07
975,-0.82,-0.95,0.64,0.02,-0.05,1.06
976,-0.64,-0.03,0.70,0.02,-0.05,1.05
