,gyro_x,gyro_y,gyro_z,acce_x,acce_y,acce_z
0,0.47,-3.92,0.56,0.01,-0.12,1.06
1,2.50,0.84,-1.11,0.02,-0.13,1.07
2,2.79,1.51,-0.37,0.01,-0.12,1.07
3,3.25,0.14,0.15,0.01,-0.12,1.07
4,1.80,-1.28,0.24,0.02,-0.12,1.05
5,1.83,2.06,-1.42,0.02,-0.12,1.08
6,2.02,2.32,-1.33,0.02,-0.12,1.06
7,-0.78,1.34,-0.40,0.03,-0.11,1.07
8,-1.25,4.66,-2.92,0.04,-0.11,1.11
9,0.20,3.86,-2.99,0.01,-0.10,1.10
10,0.92,3.05,-0.67,0.03,-0.12,1.05
11,1.45,-2.34,-0.38,0.03,-0.10,1.04
12,-0.79,-4.63,-1.48,0.02,-0.11,1.09
13,-0.53,5.16,-3.74,0.04,-0.12,1.06
14,2.35,5.54,-2.61,0.03,-0.11,1.08
15,3.19,-4.40,1.68,0.02,-0.10,1.07
16,1.16,-0.81,1.62,0.04,-0.11,1.03
17,1.08,0.98,-0.41,0.02,-0.12,1.09
18,-0.40,-1.21,-0.06,0.02,-0.11,1.08
19,-1.79,0.31,0.21,0.03,-0.12,1.06
20,-0.67,-0.73,-0.03,0.03,-0.12,1.07
21,1.02,0.02,-0.27,0.03,-0.11,1.06
22,2.18,1.13,0.21,0.03,-0.12,1.05
23,1.71,0.78,-0.06,0.03,-0.12,1.06
24,0.00,0.55,-0.06,0.03,-0.12,1.06
25,0.17,0.31,-0.38,0.03,-0.12,1.05
26,1.69,1.13,-0.60,0.02,-0.13,1.07
27,1.65,1.34,-0.09,0.02,-0.12,1.06
28,1.62,1.30,0.08,0.02,-0.12,1.05
29,1.11,1.25,-0.73,0.02,-0.12,1.05
30,0.35,1.48,-1.15,0.02,-0.11,1.05
31,0.85,1.54,-0.66,0.01,-0.11,1.06
32,1.44,1.60,-0.76,0.01,-0.11,1.06
33,1.80,1.37,-0.29,0.01,-0.12,1.07
34,1.02,1.01,-0.58,0.00,-0.12,1.07
35,0.96,0.03,-1.16,-0.01,-0.13,1.09
36,-1.76,-1.18,-4.17,-0.00,-0.11,1.07
37,-0.82,-0.70,-1.73,0.02,-0.11,1.05
38,1.30,0.34,0.31,0.03,-0.11,1.05
39,1.36,1.22,-0.06,0.02,-0.11,1.05
40,0.87,1.53,0.06,0.02,-0.10,1.05
41,0.66,1.01,0.96,0.01,-0.11,1.06
42,0.76,0.55,0.34,0.01,-0.11,1.08
43,0.64,0.03,-0.14,0.00,-0.11,1.07
44,-0.40,-0.58,0.32,0.01,-0.11,1.07
45,-0.18,-0.31,0.84,0.01,-0.11,1.06
46,0.20,-0.46,1.11,0.01,-0.11,1.07
47,0.14,-0.47,1.33,0.02,-0.11,1.06
48,-0.43,-0.55,1.15,0.01,-0.11,1.06
49,-0.14,-0.40,1.25,0.02,-0.12,1.06
50,0.56,-0.64,1.82,0.02,-0.12,1.07
51,0.52,-0.73,2.00,0.02,-0.12,1.06
52,0.60,-0.41,1.74,0.02,-0.12,1.07
53,0.12,-0.37,1.37,0.01,-0.12,1.06
54,-0.08,-0.64,1.45,0.02,-0.12,1.07
55,-0.46,-0.84,1.07,0.02,-0.11,1.05
56,-0.37,-0.38,1.01,0.02,-0.12,1.06
57,-0.06,-0.20,1.57,0.03,-0.12,1.06
58,0.02,-0.21,1.69,0.03,-0.12,1.06
59,0.27,0.12,1.74,0.03,-0.12,1.05
60,0.05,0.29,1.48,0.04,-0.12,1.06
61,0.03,0.55,1.60,0.03,-0.11,1.05
62,0.03,0.96,1.30,0.03,-0.11,1.06
63,0.31,1.34,1.48,0.03,-0.11,1.06
64,0.49,0.90,2.37,0.03,-0.11,1.06
65,0.81,1.33,2.67,0.03,-0.11,1.06
66,1.11,1.71,2.17,0.02,-0.11,1.06
67,0.89,1.50,2.09,0.02,-0.11,1.07
68,0.53,1.33,1.85,0.02,-0.11,1.07
69,0.17,0.93,1.59,0.02,-0.11,1.06
70,0.46,1.15,1.33,0.02,-0.11,1.07
71,0.17,1.07,1.53,0.01,-0.10,1.06
72,-0.18,1.31,1.21,0.02,-0.10,1.06
73,-0.05,1.18,1.30,0.02,-0.11,1.07
74,-0.26,1.02,1.28,0.01,-0.11,1.06
75,-1.11,0.64,0.95,0.01,-0.12,1.07
76,-0.50,0.60,0.93,0.02,-0.12,1.06
77,-0.46,0.61,0.82,0.01,-0.12,1.06
78,-0.81,0.38,0.93,0.02,-0.12,1.05
79,-1.04,0.46,0.72,0.03,-0.12,1.06
80,-0.52,0.43,0.90,0.02,-0.12,1.06
81,0.11,0.67,2.09,0.03,-0.12,1.06
82,0.87,0.99,2.70,0.03,-0.11,1.05
83,0.70,2.00,2.02,0.03,-0.12,1.05
84,0.63,2.08,1.79,0.02,-0.12,1.06
85,-0.12,1.88,1.71,0.02,-0.11,1.06
86,-0.43,1.92,1.88,0.02,-0.11,1.06
87,-0.02,2.02,1.28,0.01,-0.11,1.07
88,-0.03,1.80,1.59,0.01,-0.11,1.06
89,-0.52,1.82,1.27,0.01,-0.12,1.07
90,-0.50,1.36,1.05,0.01,-0.11,1.07
91,-0.06,0.93,2.06,0.01,-0.11,1.06
92,0.11,0.82,2.56,0.01,-0.11,1.06
93,0.11,0.95,1.98,0.01,-0.11,1.06
94,0.38,0.72,2.27,0.01,-0.12,1.06
95,-0.06,0.63,2.23,0.01,-0.11,1.05
96,-0.50,0.26,1.48,0.01,-0.12,1.07
97,-0.58,0.49,1.47,0.01,-0.12,1.07
98,-0.40,0.55,2.72,0.02,-0.11,1.06
99,0.23,1.02,3.33,0.02,-0.10,1.06
100,0.32,1.11,2.90,0.01,-0.12,1.07
101,-0.08,0.99,2.41,0.02,-0.11,1.06
102,-0.72,0.60,2.43,0.02,-0.11,1.07
103,-0.47,0.69,2.26,0.02,-0.11,1.05
104,0.05,0.72,2.26,0.03,-0.11,1.06
105,0.37,0.66,2.76,0.01,-0.12,1.06
106,0.17,0.99,2.56,0.02,-0.12,1.07
107,0.29,1.19,2.05,0.02,-0.12,1.06
108,0.05,1.24,2.43,0.02,-0.12,1.07
109,-0.11,1.07,2.43,0.02,-0.12,1.05
110,-0.05,1.21,2.49,0.02,-0.12,1.05
111,0.29,1.45,2.52,0.01,-0.11,1.06
112,-0.14,1.48,2.50,0.01,-0.12,1.06
113,-0.09,1.24,2.37,0.02,-0.12,1.06
114,-0.24,1.37,1.92,0.02,-0.12,1.06
115,-0.29,0.82,2.23,0.01,-0.11,1.07
116,-0.03,1.02,2.82,0.02,-0.11,1.07
117,0.41,1.30,3.01,0.01,-0.11,1.07
118,0.81,1.33,2.81,0.01,-0.11,1.06
119,0.34,0.99,2.76,0.01,-0.11,1.06
120,-0.11,0.67,2.46,0.01,-0.11,1.07
121,-0.18,0.32,2.03,0.01,-0.11,1.07
122,-0.50,0.29,1.88,0.01,-0.11,1.06
123,-0.56,0.29,1.60,0.02,-0.12,1.07
124,-0.63,0.43,1.62,0.02,-0.12,1.06
125,-0.35,0.89,2.00,0.02,-0.12,1.05
126,-0.55,0.89,2.40,0.02,-0.12,1.06
127,-0.17,0.99,2.32,0.02,-0.12,1.05
128,0.14,1.18,2.31,0.02,-0.12,1.06
129,-0.18,1.11,2.63,0.02,-0.12,1.06
130,-0.41,1.15,1.89,0.01,-0.12,1.05
131,-0.08,0.90,1.44,0.02,-0.12,1.06
132,0.06,0.75,2.18,0.01,-0.12,1.06
133,-0.03,1.19,2.37,0.02,-0.12,1.05
134,0.15,1.45,2.05,0.02,-0.12,1.06
135,0.23,1.62,1.94,0.01,-0.12,1.05
136,0.12,1.50,1.80,0.01,-0.13,1.07
137,-0.05,1.31,1.39,0.01,-0.12,1.06
138,-0.05,1.16,1.11,0.01,-0.13,1.07
139,-0.11,0.75,1.56,-0.00,-0.12,1.06
140,0.17,0.69,1.82,0.01,-0.12,1.06
141,0.02,0.92,1.51,0.01,-0.11,1.07
142,0.29,0.85,1.69,0.00,-0.12,1.05
143,0.11,0.50,2.17,0.01,-0.12,1.07
144,0.05,0.98,1.60,0.01,-0.12,1.06
145,0.09,0.66,1.36,0.01,-0.12,1.06
146,-0.21,0.70,1.45,0.01,-0.12,1.07
147,-0.58,0.55,1.19,0.01,-0.11,1.07
148,-0.52,0.41,0.69,0.01,-0.12,1.06
149,-0.70,0.09,1.31,0.01,-0.11,1.07
150,-0.60,0.34,1.45,0.01,-0.12,1.06
151,-0.31,0.55,1.21,0.01,-0.12,1.06
152,0.18,0.20,1.74,0.02,-0.12,1.06
153,0.02,0.34,1.71,0.02,-0.12,1.05
154,-0.03,0.58,1.37,0.02,-0.11,1.06
155,0.89,0.67,1.88,0.02,-0.11,1.07
156,0.89,0.76,2.34,0.02,-0.12,1.05
157,0.64,0.99,1.68,0.01,-0.12,1.06
158,0.41,0.87,1.33,0.02,-0.12,1.07
159,0.31,0.63,1.73,0.01,-0.12,1.08
160,0.50,0.40,1.48,0.02,-0.12,1.06
161,0.14,0.58,0.92,0.02,-0.12,1.06
162,-0.12,0.72,0.73,0.01,-0.12,1.06
163,-0.26,0.78,0.87,0.01,-0.11,1.06
164,-0.12,0.53,0.82,0.01,-0.12,1.07
165,-0.18,0.69,0.44,0.01,-0.11,1.06
166,-0.31,0.50,0.55,0.01,-0.12,1.06
167,-0.02,0.21,0.93,0.01,-0.12,1.06
168,-0.17,0.44,0.63,0.01,-0.12,1.06
169,-0.20,-0.09,0.14,0.01,-0.12,1.07
170,-0.60,-0.31,0.31,0.00,-0.11,1.06
171,-0.58,0.05,0.50,0.02,-0.11,1.07
172,-0.02,0.17,0.95,0.01,-0.11,1.07
173,0.60,0.03,1.19,0.01,-0.11,1.06
174,0.12,0.46,0.98,0.02,-0.11,1.06
175,-0.14,0.41,0.38,0.01,-0.11,1.05
176,0.09,0.06,0.64,0.01,-0.12,1.06
177,0.21,0.21,1.02,0.02,-0.12,1.06
178,0.31,0.56,0.79,0.02,-0.11,1.06
179,0.69,0.67,0.95,0.01,-0.11,1.07
180,0.35,0.58,0.98,0.01,-0.11,1.07
181,0.09,0.47,1.11,0.01,-0.11,1.07
182,0.44,0.34,1.21,0.02,-0.12,1.06
183,0.58,0.18,1.53,0.01,-0.11,1.05
184,0.72,0.08,1.74,0.02,-0.11,1.06
185,0.85,0.44,1.48,0.02,-0.11,1.06
186,0.84,0.50,1.18,0.02,-0.11,1.06
187,0.24,0.41,1.40,0.01,-0.11,1.05
188,-0.20,0.31,0.81,0.01,-0.11,1.06
189,-0.27,0.27,0.49,0.01,-0.11,1.07
190,0.00,0.03,0.60,0.01,-0.11,1.07
191,-0.27,0.32,0.41,0.01,-0.12,1.07
192,-0.75,0.12,-0.12,0.01,-0.12,1.07
193,-0.76,-0.03,0.05,0.00,-0.11,1.06
194,-0.78,-0.40,0.37,0.01,-0.11,1.07
195,-0.73,-0.03,0.63,0.01,-0.11,1.06
196,-0.17,0.06,0.75,0.02,-0.12,1.06
197,-0.17,0.02,1.22,0.01,-0.11,1.06
198,0.15,0.38,1.42,0.02,-0.12,1.06
199,0.58,0.38,0.84,0.01,-0.12,1.06
200,0.32,0.41,0.47,0.01,-0.13,1.07
201,-0.21,0.05,0.46,0.02,-0.12,1.07
202,-0.35,0.18,0.08,0.01,-0.12,1.05
203,0.21,0.43,0.81,0.02,-0.12,1.06
204,0.66,0.50,1.45,0.02,-0.12,1.05
205,0.56,0.92,1.13,0.01,-0.12,1.06
206,0.46,0.90,0.49,0.02,-0.11,1.06
207,0.23,0.69,0.61,0.01,-0.12,1.06
208,0.37,0.53,0.89,0.01,-0.12,1.06
209,0.35,0.89,0.27,0.01,-0.11,1.06
210,0.50,0.52,0.60,0.01,-0.12,1.06
211,0.32,0.35,0.98,0.01,-0.12,1.06
212,0.11,0.15,0.64,0.01,-0.11,1.07
213,0.14,0.27,0.58,0.00,-0.11,1.06
214,0.26,0.12,1.16,0.01,-0.12,1.06
215,0.35,0.15,1.40,0.01,-0.11,1.06
216,0.27,-0.29,1.11,0.01,-0.12,1.06
217,0.31,-0.02,1.11,0.01,-0.12,1.07
218,0.00,-0.15,1.16,0.01,-0.12,1.06
219,-0.40,-0.14,0.44,0.02,-0.12,1.06
220,-0.29,-0.24,0.66,0.01,-0.12,1.06
221,-0.12,-0.14,1.04,0.01,-0.12,1.06
222,0.02,0.09,0.82,0.01,-0.12,1.06
223,0.17,0.06,0.64,0.02,-0.11,1.06
224,0.24,0.15,1.21,0.02,-0.12,1.06
225,0.09,0.50,1.57,0.01,-0.11,1.06
226,-0.11,0.64,1.19,0.01,-0.12,1.07
227,-0.12,0.60,1.31,0.01,-0.12,1.07
228,0.55,0.24,2.72,0.02,-0.12,1.06
229,0.70,0.34,2.37,0.01,-0.12,1.06
230,0.44,0.44,1.76,0.01,-0.13,1.07
231,0.08,0.02,1.47,0.01,-0.13,1.06
232,-0.23,0.12,1.50,0.02,-0.12,1.06
233,0.03,0.24,1.05,0.02,-0.12,1.06
234,0.52,0.34,1.34,0.02,-0.12,1.06
235,0.27,0.66,1.68,0.02,-0.11,1.06
236,0.26,0.66,0.98,0.01,-0.11,1.06
237,0.15,0.69,1.45,0.02,-0.12,1.06
238,0.17,0.93,1.25,0.02,-0.11,1.06
239,-0.09,0.95,0.67,0.01,-0.11,1.07
240,-0.06,0.99,0.84,0.01,-0.11,1.07
241,0.06,0.90,1.56,0.01,-0.12,1.07
242,0.63,0.78,2.31,0.01,-0.12,1.07
243,0.84,0.90,1.94,0.01,-0.12,1.06
244,0.84,0.66,1.39,0.01,-0.12,1.06
245,-0.06,0.60,1.47,0.02,-0.11,1.06
246,-0.18,0.26,1.36,0.01,-0.11,1.05
247,0.21,0.79,1.48,0.01,-0.12,1.06
248,0.67,0.64,2.05,0.01,-0.12,1.06
249,0.35,0.82,2.06,0.01,-0.11,1.06
250,0.47,0.75,1.68,0.01,-0.11,1.06
251,-0.02,0.73,1.86,0.01,-0.11,1.07
252,-0.34,0.47,1.74,0.01,-0.11,1.06
253,-0.43,0.35,1.27,0.01,-0.12,1.06
254,-0.05,0.27,1.51,0.02,-0.12,1.07
255,0.15,0.31,1.80,0.02,-0.12,1.07
256,-0.44,0.27,1.28,0.02,-0.12,1.06
257,-0.29,0.43,1.21,0.02,-0.11,1.06
258,0.00,0.53,1.39,0.02,-0.12,1.05
259,-0.12,0.73,1.28,0.02,-0.11,1.06
260,0.26,1.01,1.24,0.02,-0.12,1.05
261,0.34,1.11,1.07,0.00,-0.12,1.07
262,0.03,0.31,1.36,0.01,-0.12,1.07
263,-0.18,0.15,1.08,0.01,-0.11,1.06
264,-0.18,0.31,0.92,0.02,-0.11,1.06
265,-0.02,0.52,1.34,0.01,-0.12,1.06
266,-0.18,0.41,1.40,0.01,-0.11,1.06
267,0.06,0.63,1.19,0.01,-0.12,1.06
268,0.47,0.35,1.85,0.01,-0.12,1.06
269,0.46,0.09,1.89,0.01,-0.12,1.06
270,0.29,0.44,1.37,0.01,-0.12,1.06
271,0.08,0.32,0.95,0.00,-0.12,1.06
272,0.29,0.31,1.60,0.01,-0.11,1.07
273,0.18,0.58,1.40,0.02,-0.11,1.06
274,0.03,0.76,0.47,0.01,-0.12,1.07
275,-0.09,0.40,1.25,0.02,-0.11,1.06
276,0.08,0.44,1.83,0.02,-0.12,1.05
277,0.67,1.08,1.31,0.01,-0.11,1.06
278,0.56,0.96,1.31,0.01,-0.12,1.06
279,0.11,0.61,1.77,0.01,-0.12,1.06
280,-0.03,0.52,1.19,0.01,-0.11,1.07
281,-0.02,0.69,0.82,0.01,-0.11,1.06
282,-0.44,0.52,0.96,0.01,-0.11,1.06
283,-0.31,0.53,0.60,0.01,-0.11,1.06
284,-0.46,0.17,0.41,0.00,-0.12,1.06
285,-0.55,0.20,0.56,0.01,-0.12,1.07
286,-0.52,0.35,0.76,0.02,-0.11,1.06
287,-0.14,0.09,1.07,0.01,-0.11,1.06
288,-0.08,0.15,0.93,0.01,-0.11,1.07
289,-0.03,0.34,1.15,0.01,-0.12,1.06
290,-0.37,0.47,1.18,0.01,-0.11,1.06
291,-0.03,0.20,0.99,0.01,-0.12,1.07
292,-0.31,0.12,1.22,0.01,-0.12,1.06
293,-0.38,0.09,0.87,0.02,-0.11,1.06
294,-0.55,0.32,0.41,0.01,-0.12,1.07
295,-0.44,0.24,0.66,0.01,-0.12,1.07
296,-0.70,0.17,0.58,0.01,-0.12,1.06
297,-0.53,0.12,0.31,0.01,-0.11,1.07
298,0.18,0.58,0.64,0.02,-0.12,1.06
299,0.46,0.60,1.51,0.01,-0.13,1.06
300,0.46,0.55,1.24,0.00,-0.12,1.05
301,0.43,0.38,0.78,0.01,-0.13,1.06
302,0.41,0.03,0.96,0.00,-0.12,1.07
303,0.21,-0.06,1.02,0.01,-0.12,1.06
304,0.20,0.32,0.53,0.01,-0.12,1.07
305,0.17,0.40,0.64,0.01,-0.12,1.06
306,0.09,0.17,0.99,0.01,-0.12,1.06
307,0.03,0.21,1.11,0.01,-0.11,1.05
308,-0.17,0.31,0.52,0.01,-0.11,1.06
309,0.18,0.24,1.13,0.01,-0.11,1.06
310,0.14,-0.09,1.07,0.01,-0.11,1.06
311,0.21,0.32,0.89,0.01,-0.11,1.05
312,-0.18,0.02,0.78,0.01,-0.11,1.07
313,-0.31,-0.49,1.01,0.01,-0.12,1.06
314,-0.15,-0.23,1.36,0.01,-0.12,1.06
315,0.41,0.02,1.39,0.02,-0.12,1.06
316,0.43,0.14,1.51,0.01,-0.12,1.05
317,0.17,0.38,1.34,0.02,-0.12,1.05
318,0.55,0.66,1.19,0.01,-0.13,1.06
319,0.78,0.55,1.30,0.02,-0.13,1.07
320,0.20,0.27,1.16,0.01,-0.12,1.06
321,0.08,0.12,0.58,0.01,-0.11,1.07
322,-0.12,0.56,0.29,0.02,-0.12,1.06
323,-0.37,0.17,0.61,0.01,-0.12,1.06
324,-0.11,0.40,0.87,0.02,-0.12,1.07
325,0.11,0.53,0.52,0.02,-0.11,1.06
326,0.08,0.60,0.64,0.02,-0.11,1.06
327,0.05,0.50,0.58,0.01,-0.11,1.07
328,-0.09,0.11,0.14,0.01,-0.11,1.06
329,-0.52,-0.12,-0.03,0.00,-0.11,1.06
330,-0.46,0.05,0.69,0.01,-0.11,1.06
331,-0.44,0.05,0.78,0.01,-0.11,1.07
332,0.06,-0.20,1.08,0.01,-0.11,1.07
333,-0.08,-0.37,1.30,0.01,-0.12,1.06
334,-0.40,-0.31,1.31,0.01,-0.12,1.05
335,-0.66,-0.37,1.11,0.01,-0.12,1.06
336,-0.52,-0.43,1.28,0.01,-0.12,1.06
337,-0.20,-0.15,1.30,0.01,-0.13,1.07
338,0.18,0.14,0.70,0.02,-0.12,1.06
339,0.49,-0.02,1.11,0.02,-0.12,1.06
340,0.46,0.61,1.19,0.01,-0.12,1.05
341,-0.06,0.66,1.04,0.01,-0.11,1.06
342,0.02,0.92,1.02,0.01,-0.12,1.06
343,0.82,0.81,1.31,0.02,-0.12,1.06
344,0.75,0.92,0.72,0.01,-0.12,1.06
345,0.17,1.30,0.35,0.01,-0.11,1.06
346,0.06,0.84,0.61,0.01,-0.12,1.06
347,0.23,0.79,0.95,0.01,-0.11,1.05
348,0.17,0.81,0.98,0.00,-0.11,1.07
349,0.63,0.31,1.24,0.00,-0.11,1.07
350,0.31,0.49,1.15,0.01,-0.11,1.08
351,-0.17,0.43,1.42,0.00,-0.12,1.06
352,-0.26,-0.24,1.04,0.01,-0.12,1.07
353,-0.08,-0.18,1.33,0.01,-0.12,1.05
354,-0.12,-0.11,1.59,0.01,-0.12,1.06
355,-0.06,-0.03,1.13,0.01,-0.12,1.07
356,-0.06,-0.14,1.01,0.01,-0.11,1.06
357,-0.81,-0.23,0.93,0.01,-0.12,1.05
358,-0.76,0.35,0.61,0.02,-0.12,1.06
359,-0.06,-0.08,1.27,0.02,-0.12,1.06
360,0.55,0.24,1.98,0.03,-0.12,1.05
361,0.69,0.64,1.51,0.03,-0.12,1.06
362,0.29,0.78,0.66,0.02,-0.12,1.06
363,-0.02,0.49,0.90,0.01,-0.12,1.06
364,0.14,0.24,1.19,0.02,-0.11,1.06
365,0.56,0.81,1.13,0.02,-0.12,1.05
366,0.75,0.95,0.95,0.01,-0.11,1.06
367,0.44,0.81,1.15,0.01,-0.12,1.06
368,0.00,1.04,0.84,0.01,-0.11,1.07
369,-0.23,0.75,0.60,0.01,-0.11,1.07
370,0.18,0.38,1.16,0.01,-0.12,1.06
371,0.27,0.47,1.04,0.01,-0.12,1.06
372,0.03,0.26,0.98,0.01,-0.11,1.07
373,-0.11,-0.05,1.10,0.01,-0.12,1.07
374,-0.58,-0.26,0.72,0.01,-0.12,1.06
375,-0.93,-0.02,0.52,0.00,-0.11,1.07
376,-0.32,-0.14,0.81,0.02,-0.12,1.07
377,-0.15,-0.11,1.21,0.01,-0.11,1.06
378,-0.05,-0.03,1.01,0.02,-0.11,1.07
379,-0.20,0.47,0.60,0.01,-0.12,1.06
380,-0.15,0.37,0.95,0.02,-0.12,1.06
381,-0.23,0.24,1.01,0.02,-0.12,1.06
382,0.15,0.38,0.56,0.01,-0.12,1.07
383,0.53,0.46,0.23,0.01,-0.12,1.06
384,0.34,0.20,0.50,0.01,-0.12,1.06
385,-0.03,0.15,0.60,0.02,-0.11,1.05
386,-0.23,0.43,0.44,0.02,-0.11,1.06
387,-0.12,0.47,0.67,0.01,-0.11,1.06
388,-0.08,0.29,0.67,0.01,-0.12,1.06
389,-0.05,0.41,0.47,0.02,-0.12,1.06
390,0.02,0.20,0.69,0.01,-0.12,1.05
391,-0.05,0.21,0.76,0.02,-0.12,1.06
392,-0.26,-0.05,0.41,0.01,-0.12,1.06
393,-0.26,-0.40,0.09,0.01,-0.12,1.06
394,-0.37,-0.11,0.64,0.02,-0.12,1.06
395,-0.40,0.17,0.53,0.02,-0.11,1.06
396,-0.31,0.20,0.47,0.02,-0.12,1.06
397,0.26,0.32,1.02,0.01,-0.12,1.05
398,0.09,0.37,0.90,0.02,-0.12,1.06
399,0.08,0.44,0.56,0.02,-0.12,1.06
400,0.05,0.29,0.60,0.01,-0.12,1.07
401,0.03,0.43,0.52,0.02,-0.12,1.07
402,-0.17,0.53,0.43,0.01,-0.12,1.06
403,0.40,0.58,1.13,0.02,-0.12,1.06
404,0.67,0.47,1.51,0.01,-0.12,1.06
405,0.38,0.52,1.16,0.01,-0.11,1.06
406,0.17,0.53,0.67,0.02,-0.12,1.06
407,-0.11,0.37,0.53,0.01,-0.12,1.06
408,-0.70,0.24,0.47,0.01,-0.11,1.06
409,-0.41,0.44,0.70,0.01,-0.12,1.06
410,0.47,0.15,1.28,0.01,-0.12,1.07
411,0.35,0.17,1.22,0.01,-0.12,1.06
412,0.03,-0.15,0.41,0.01,-0.12,1.06
413,-0.24,0.00,0.35,0.01,-0.12,1.05
414,-0.05,-0.17,0.87,0.02,-0.12,1.07
415,-0.03,-0.15,0.95,0.01,-0.12,1.06
416,0.38,0.26,1.01,0.02,-0.11,1.06
417,0.75,0.31,1.40,0.02,-0.12,1.06
418,0.43,0.06,1.51,0.02,-0.12,1.06
419,0.56,0.47,1.25,0.02,-0.12,1.06
420,0.85,0.53,1.36,0.01,-0.12,1.05
421,0.58,0.56,1.45,0.01,-0.12,1.06
422,0.17,0.63,1.34,0.02,-0.12,1.07
423,0.60,0.60,1.62,0.01,-0.12,1.07
424,1.15,0.35,1.77,0.01,-0.13,1.06
425,0.63,0.26,1.04,0.01,-0.12,1.06
426,0.02,0.27,0.60,0.01,-0.12,1.06
427,-0.09,0.23,0.55,0.01,-0.12,1.07
428,0.00,0.32,1.02,0.01,-0.12,1.06
429,0.14,0.52,1.13,0.01,-0.11,1.05
430,0.26,0.34,0.61,0.02,-0.12,1.06
431,0.15,0.06,0.96,0.01,-0.12,1.07
432,-0.12,0.05,0.98,0.01,-0.12,1.06
433,-0.29,-0.18,0.73,0.01,-0.12,1.06
434,-0.06,0.03,1.37,0.01,-0.12,1.07
435,-0.21,-0.02,1.34,0.02,-0.11,1.05
436,-0.46,0.31,0.70,0.01,-0.12,1.05
437,-0.38,0.08,0.98,0.01,-0.12,1.07
438,0.03,0.05,1.36,0.01,-0.12,1.06
439,-0.18,-0.49,1.04,0.01,-0.12,1.06
440,-0.17,-0.32,1.04,0.01,-0.12,1.07
441,0.00,-0.34,1.57,0.01,-0.12,1.07
442,-0.03,-0.44,1.77,0.01,-0.11,1.06
443,0.29,-0.53,2.06,0.01,-0.12,1.05
444,0.76,-0.21,2.60,0.02,-0.12,1.07
445,0.17,-0.11,2.32,0.02,-0.12,1.06
446,-0.02,-0.09,1.68,0.02,-0.12,1.06
447,0.09,0.23,1.59,0.02,-0.13,1.06
448,0.06,-0.06,1.60,0.02,-0.13,1.06
449,-0.15,0.06,0.95,0.02,-0.11,1.06
450,-0.26,0.35,0.41,0.02,-0.13,1.06
451,-0.29,0.56,0.66,0.02,-0.12,1.06
452,-0.17,0.52,0.47,0.02,-0.11,1.05
453,-0.37,0.90,0.31,0.02,-0.12,1.06
454,-0.02,0.92,0.14,0.02,-0.12,1.06
455,-0.14,1.22,0.66,0.02,-0.12,1.05
456,0.21,0.98,0.50,0.01,-0.12,1.07
457,0.31,0.95,0.46,0.01,-0.12,1.07
458,0.14,0.76,0.58,0.01,-0.12,1.07
459,-0.17,0.49,0.41,0.00,-0.11,1.06
460,-0.06,0.43,0.14,0.01,-0.12,1.07
461,-0.02,0.18,0.98,0.01,-0.12,1.06
462,-0.26,0.17,1.13,0.01,-0.11,1.05
463,-0.08,0.14,0.76,0.01,-0.12,1.06
464,-0.17,-0.20,0.90,0.01,-0.12,1.07
465,-0.58,0.12,0.67,0.02,-0.12,1.06
466,-1.01,-0.02,0.29,0.01,-0.12,1.07
467,-0.87,0.00,0.35,0.01,-0.13,1.06
468,-0.08,0.02,1.15,0.01,-0.11,1.06
469,0.14,0.21,1.56,0.02,-0.12,1.06
470,0.23,0.52,1.59,0.02,-0.12,1.06
471,0.96,0.49,2.24,0.02,-0.12,1.06
472,0.87,0.52,2.12,0.02,-0.12,1.06
473,0.55,1.04,1.39,0.02,-0.12,1.07
474,0.50,0.85,1.11,0.01,-0.12,1.07
475,0.38,0.27,1.21,0.01,-0.12,1.06
476,0.23,0.21,0.92,0.02,-0.12,1.06
477,0.43,0.06,1.11,0.01,-0.11,1.06
478,0.61,0.40,1.42,0.02,-0.12,1.06
479,0.38,0.61,0.99,0.01,-0.12,1.06
480,0.02,0.31,0.50,0.01,-0.12,1.06
481,-0.06,0.56,1.04,0.01,-0.12,1.08
482,0.11,0.27,1.57,0.01,-0.12,1.06
483,0.11,0.26,0.75,0.01,-0.12,1.06
484,-0.05,-0.14,0.32,0.01,-0.12,1.07
485,-0.43,-0.12,0.76,0.01,-0.11,1.07
486,-0.76,0.03,0.55,0.02,-0.11,1.06
487,-0.18,0.20,0.53,0.02,-0.11,1.07
488,0.09,0.18,0.69,0.01,-0.13,1.07
489,0.14,0.27,1.02,0.01,-0.12,1.07
490,0.27,0.12,0.66,0.02,-0.11,1.06
491,0.12,0.06,0.55,0.01,-0.11,1.07
492,-0.27,0.35,0.95,0.02,-0.11,1.06
493,-0.02,0.43,1.24,0.02,-0.11,1.06
494,0.47,0.50,1.30,0.02,-0.12,1.07
495,0.31,0.73,1.21,0.02,-0.12,1.06
496,0.00,0.52,0.73,0.01,-0.12,1.06
497,0.26,0.64,0.85,0.01,-0.12,1.06
498,0.49,0.67,1.45,0.02,-0.12,1.07
499,0.37,0.40,1.71,0.01,-0.11,1.06
500,0.34,0.38,1.15,0.01,-0.12,1.05
501,0.14,0.99,1.11,0.01,-0.12,1.06
502,0.44,0.43,1.57,0.01,-0.12,1.06
503,0.46,0.41,1.31,0.01,-0.12,1.05
504,0.43,0.32,0.96,0.01,-0.13,1.06
505,0.18,0.00,0.82,0.02,-0.12,1.06
506,0.00,0.05,0.99,0.01,-0.12,1.05
507,0.27,0.49,0.93,0.02,-0.12,1.06
508,0.64,0.63,1.21,0.02,-0.12,1.06
509,0.35,0.47,1.11,0.02,-0.11,1.06
510,-0.18,0.70,0.58,0.01,-0.12,1.06
511,-0.11,0.66,0.55,0.01,-0.11,1.06
512,-0.06,0.40,1.11,0.01,-0.12,1.07
513,-0.44,0.52,0.93,0.01,-0.11,1.06
514,0.26,0.40,0.99,0.02,-0.12,1.07
515,0.70,0.44,1.65,0.01,-0.13,1.06
516,0.47,0.34,1.48,0.02,-0.12,1.06
517,0.20,0.41,0.81,0.01,-0.12,1.06
518,0.06,0.37,0.72,0.01,-0.12,1.07
519,-0.09,0.00,0.82,0.02,-0.12,1.06
520,-0.12,0.34,0.72,0.01,-0.12,1.06
521,0.09,0.37,0.18,0.01,-0.12,1.06
522,-0.17,0.34,0.40,0.01,-0.12,1.06
523,0.00,0.06,0.75,0.02,-0.12,1.06
524,0.24,0.08,0.81,0.01,-0.12,1.06
525,0.50,0.41,1.39,0.02,-0.12,1.07
526,0.50,0.20,1.98,0.01,-0.12,1.06
527,0.64,0.32,1.83,0.02,-0.12,1.07
528,0.29,0.21,1.21,0.01,-0.12,1.06
529,-0.05,0.34,1.44,0.02,-0.13,1.06
530,-0.08,0.21,1.16,0.01,-0.12,1.06
531,0.37,0.37,0.79,0.01,-0.12,1.06
532,0.56,0.18,0.90,0.02,-0.12,1.07
533,-0.03,0.46,0.64,0.01,-0.11,1.06
534,-0.05,0.46,0.75,0.01,-0.12,1.06
535,0.34,0.31,1.39,0.01,-0.12,1.07
536,0.52,0.76,1.88,0.01,-0.12,1.06
537,0.32,0.64,1.21,0.01,-0.12,1.06
538,0.20,0.35,1.18,0.01,-0.12,1.07
539,0.76,0.43,1.68,0.01,-0.12,1.06
540,0.72,0.27,1.45,0.02,-0.12,1.06
541,0.47,0.50,1.54,0.02,-0.11,1.06
542,0.61,0.15,1.44,0.01,-0.12,1.06
543,0.35,0.49,1.31,0.01,-0.12,1.06
544,0.29,0.29,0.58,0.02,-0.12,1.06
545,0.31,0.31,1.08,0.01,-0.12,1.06
546,0.32,0.32,1.01,0.02,-0.12,1.05
547,0.17,0.41,0.70,0.00,-0.11,1.06
548,0.11,0.37,0.56,0.01,-0.12,1.07
549,-0.15,0.14,0.72,0.01,-0.12,1.06
550,-0.47,0.06,0.85,0.01,-0.12,1.07
551,-0.15,-0.24,0.87,0.01,-0.12,1.06
552,-0.08,-0.31,0.90,0.01,-0.12,1.06
553,-0.08,-0.47,1.31,0.01,-0.12,1.06
554,-0.29,-0.02,1.51,0.02,-0.12,1.07
555,-0.12,-0.18,1.33,0.02,-0.12,1.08
556,0.27,0.18,1.79,0.02,-0.12,1.06
557,0.40,0.32,1.86,0.02,-0.12,1.06
558,0.35,0.50,1.79,0.02,-0.12,1.06
559,0.50,0.37,1.39,0.02,-0.12,1.06
560,0.23,0.64,1.31,0.02,-0.12,1.06
561,0.02,0.47,0.63,0.02,-0.12,1.06
562,0.27,0.82,0.49,0.01,-0.12,1.06
563,0.23,0.95,0.46,0.01,-0.11,1.06
564,-0.15,0.96,0.46,0.01,-0.12,1.08
565,-0.12,1.08,0.12,0.01,-0.12,1.06
566,0.21,0.84,0.81,0.01,-0.11,1.06
567,0.58,0.76,1.44,0.01,-0.11,1.06
568,0.67,0.64,1.86,0.01,-0.12,1.06
569,0.95,0.38,1.76,0.00,-0.11,1.07
570,0.40,0.21,1.56,0.01,-0.12,1.07
571,-0.46,-0.15,0.96,0.01,-0.11,1.07
572,-0.44,-0.08,0.70,0.01,-0.12,1.06
573,-0.37,0.37,1.02,0.01,-0.11,1.06
574,-0.56,-0.03,1.04,0.01,-0.12,1.06
575,-0.41,0.17,1.15,0.01,-0.12,1.05
576,0.12,0.26,1.68,0.02,-0.12,1.06
577,-0.12,0.37,1.80,0.02,-0.12,1.06
578,-0.09,0.37,1.33,0.02,-0.12,1.06
579,0.20,0.56,1.50,0.01,-0.12,1.06
580,0.06,0.44,1.73,0.01,-0.12,1.06
581,0.08,0.40,1.39,0.02,-0.12,1.07
582,0.26,0.50,1.07,0.01,-0.12,1.06
583,0.18,0.41,1.01,0.01,-0.12,1.06
584,-0.12,0.61,0.93,0.02,-0.12,1.06
585,-0.14,0.37,0.15,0.01,-0.12,1.06
586,-0.11,0.21,0.41,0.02,-0.12,1.06
587,-0.18,0.15,0.72,0.02,-0.12,1.06
588,-0.32,0.09,0.11,0.01,-0.12,1.06
589,-0.12,0.37,0.46,0.01,-0.11,1.06
590,0.21,0.23,1.39,0.01,-0.11,1.06
591,0.12,0.52,1.53,0.01,-0.12,1.05
592,0.09,0.95,1.11,0.01,-0.12,1.06
593,-0.21,0.38,1.18,0.01,-0.12,1.07
594,-0.37,0.60,1.40,0.01,-0.12,1.06
595,-0.17,0.38,0.85,0.02,-0.11,1.06
596,0.03,0.24,1.13,0.01,-0.12,1.07
597,-0.14,0.17,1.60,0.02,-0.12,1.05
598,-0.26,0.40,1.24,0.02,-0.11,1.06
599,-0.06,0.41,0.75,0.02,-0.12,1.06
600,-0.55,0.38,1.22,0.01,-0.12,1.06
601,-0.78,0.38,0.84,0.02,-0.12,1.06
602,-0.46,0.43,0.49,0.01,-0.12,1.06
603,-0.56,0.35,0.64,0.01,-0.12,1.07
604,-0.66,0.34,1.04,0.01,-0.12,1.07
605,-0.49,0.67,0.66,0.01,-0.11,1.05
606,-0.40,0.58,0.52,0.01,-0.13,1.07
607,-0.55,0.29,1.05,0.01,-0.12,1.06
608,-0.37,0.18,1.24,0.01,-0.12,1.05
609,-0.20,0.37,0.89,0.01,-0.12,1.07
610,-0.24,0.34,0.98,0.01,-0.12,1.06
611,-0.49,0.29,0.93,0.01,-0.12,1.06
612,-0.15,0.32,1.25,0.01,-0.13,1.07
613,0.70,0.38,1.91,0.02,-0.12,1.07
614,1.02,0.43,2.18,0.02,-0.12,1.05
615,0.85,0.11,1.83,0.01,-0.12,1.07
616,0.79,0.26,1.76,0.01,-0.12,1.06
617,0.72,0.63,1.73,0.02,-0.12,1.06
618,0.14,0.49,1.30,0.02,-0.12,1.05
619,0.70,0.66,1.39,0.02,-0.13,1.06
620,0.76,0.47,1.53,0.01,-0.12,1.06
621,0.27,0.53,1.19,0.01,-0.12,1.06
622,0.14,0.66,0.70,0.01,-0.12,1.06
623,0.21,0.60,1.19,0.01,-0.12,1.06
624,0.44,0.53,1.89,0.01,-0.12,1.06
625,0.90,0.53,2.20,0.01,-0.12,1.06
626,1.18,0.73,1.56,0.01,-0.12,1.06
627,0.32,0.40,1.44,0.01,-0.13,1.07
628,-0.24,0.35,1.37,0.01,-0.12,1.07
629,0.08,0.24,1.02,0.01,-0.12,1.07
630,0.26,0.21,1.18,0.01,-0.12,1.07
631,0.02,0.12,1.42,0.01,-0.12,1.06
632,-0.06,-0.11,1.04,0.01,-0.12,1.07
633,-0.03,0.00,0.92,0.01,-0.12,1.06
634,-0.17,-0.06,1.18,0.01,-0.12,1.06
635,-0.37,0.12,1.45,0.02,-0.11,1.07
636,0.46,0.31,1.53,0.02,-0.12,1.06
637,0.99,0.46,2.05,0.02,-0.12,1.05
638,1.10,0.34,2.08,0.02,-0.12,1.05
639,0.66,0.24,1.31,0.01,-0.12,1.06
640,0.49,0.60,0.93,0.01,-0.12,1.06
641,0.37,0.29,1.25,0.02,-0.12,1.06
642,0.56,0.84,1.34,0.02,-0.12,1.06
643,1.01,0.84,0.95,0.02,-0.13,1.07
644,0.40,0.78,0.82,0.01,-0.13,1.07
645,0.03,0.38,0.76,0.01,-0.12,1.06
646,0.09,0.50,0.78,0.01,-0.12,1.07
647,0.12,0.31,0.95,0.01,-0.12,1.06
648,0.09,-0.02,1.48,0.01,-0.11,1.07
649,0.38,0.35,1.28,0.02,-0.12,1.05
650,0.34,0.20,1.16,0.01,-0.12,1.07
651,0.06,0.12,1.18,0.01,-0.12,1.06
652,-0.40,0.47,0.66,0.02,-0.12,1.06
653,-0.41,0.41,0.27,0.02,-0.11,1.07
654,0.21,0.32,1.30,0.01,-0.12,1.06
655,0.37,0.26,1.59,0.01,-0.12,1.06
656,0.53,0.27,1.37,0.02,-0.12,1.06
657,0.14,0.63,1.25,0.01,-0.11,1.06
658,0.03,0.37,1.42,0.01,-0.11,1.07
659,-0.34,0.15,1.50,0.01,-0.11,1.06
660,0.20,0.14,2.02,0.01,-0.12,1.06
661,0.14,-0.18,1.83,0.01,-0.12,1.07
662,0.23,-0.17,1.24,0.02,-0.12,1.06
663,-0.29,-0.18,1.01,0.01,-0.13,1.07
664,-0.58,0.03,0.93,0.01,-0.12,1.06
665,-0.60,-0.20,0.82,0.02,-0.12,1.06
666,-0.27,0.00,0.93,0.03,-0.12,1.06
667,-0.02,0.08,0.50,0.02,-0.13,1.06
668,0.00,0.41,1.11,0.02,-0.12,1.05
669,0.00,0.58,1.34,0.02,-0.12,1.06
670,0.60,0.79,1.54,0.02,-0.12,1.06
671,0.98,0.84,1.88,0.02,-0.12,1.06
672,0.78,1.05,1.98,0.01,-0.12,1.06
673,0.82,1.11,1.65,0.01,-0.12,1.06
674,0.90,1.01,1.89,0.01,-0.12,1.06
675,0.64,1.04,1.88,0.01,-0.12,1.05
676,0.98,1.05,1.68,0.01,-0.12,1.07
677,0.93,0.63,1.51,0.00,-0.12,1.06
678,0.55,0.31,1.71,0.00,-0.12,1.07
679,0.12,-0.26,1.31,0.00,-0.11,1.06
680,0.06,0.08,0.52,0.01,-0.12,1.07
681,-0.21,0.12,0.56,0.01,-0.12,1.06
682,-0.40,-0.06,0.92,0.01,-0.12,1.06
683,-0.37,-0.02,0.84,0.02,-0.12,1.06
684,-0.03,0.32,1.11,0.01,-0.12,1.07
685,-0.27,0.31,1.40,0.01,-0.11,1.07
686,-0.29,0.18,1.34,0.02,-0.12,1.05
687,0.23,0.14,1.73,0.02,-0.12,1.07
688,0.14,0.37,1.82,0.01,-0.13,1.06
689,0.15,0.08,1.51,0.02,-0.12,1.07
690,0.44,0.75,1.45,0.02,-0.12,1.06
691,0.61,0.69,1.68,0.02,-0.12,1.06
692,0.32,0.75,1.74,0.02,-0.12,1.05
693,0.50,0.67,1.28,0.01,-0.12,1.06
694,0.70,1.07,1.21,0.02,-0.12,1.06
695,0.53,0.52,1.50,0.01,-0.12,1.07
696,0.41,0.60,1.47,0.01,-0.12,1.05
697,0.53,0.67,1.30,0.02,-0.12,1.06
698,0.52,0.56,1.51,0.01,-0.12,1.06
699,-0.06,0.31,1.44,0.00,-0.11,1.07
700,-0.20,0.38,1.11,0.01,-0.12,1.07
701,-0.06,0.34,1.01,0.01,-0.11,1.07
702,-0.34,0.17,1.02,0.01,-0.12,1.06
703,-0.69,0.11,0.72,0.01,-0.12,1.07
704,-0.44,-0.06,0.89,0.01,-0.12,1.06
705,-0.12,0.29,1.59,0.01,-0.12,1.06
706,-0.11,0.34,1.44,0.01,-0.12,1.06
707,-0.03,-0.12,0.84,0.01,-0.12,1.06
708,-0.32,-0.02,0.78,0.02,-0.12,1.06
709,0.18,0.21,1.59,0.01,-0.12,1.05
710,0.75,0.35,1.50,0.02,-0.13,1.06
711,0.96,0.44,1.63,0.02,-0.12,1.06
712,0.90,0.70,1.91,0.02,-0.12,1.06
713,0.70,0.76,1.47,0.02,-0.12,1.05
714,0.21,1.11,0.92,0.01,-0.11,1.06
715,0.09,0.73,1.07,0.01,-0.12,1.05
716,-0.11,0.63,1.15,0.00,-0.12,1.06
717,-0.29,0.75,0.76,0.00,-0.12,1.07
718,-0.27,0.27,0.55,0.01,-0.13,1.07
719,-0.64,0.08,0.44,0.02,-0.12,1.06
720,-0.79,-0.09,0.03,0.01,-0.12,1.06
721,-0.73,0.15,0.17,0.01,-0.11,1.07
722,-0.67,0.14,0.66,0.02,-0.12,1.06
723,-0.18,0.08,0.78,0.02,-0.11,1.05
724,-0.27,0.17,0.76,0.01,-0.12,1.06
725,-0.37,0.43,0.93,0.01,-0.13,1.06
726,0.14,0.34,1.97,0.02,-0.12,1.06
727,0.27,0.66,1.71,0.02,-0.12,1.06
728,0.81,0.55,1.45,0.01,-0.12,1.07
729,1.01,0.20,1.89,0.01,-0.13,1.07
730,0.43,0.47,1.10,0.01,-0.12,1.06
731,-0.06,0.46,0.55,0.01,-0.12,1.06
732,-0.09,0.20,1.10,0.01,-0.11,1.06
733,0.02,0.06,1.31,0.01,-0.12,1.06
734,0.35,0.32,0.93,0.01,-0.12,1.06
735,0.34,0.61,0.99,0.01,-0.13,1.07
736,0.27,0.40,1.28,0.01,-0.12,1.06
737,0.24,0.49,0.92,0.02,-0.12,1.06
738,0.15,0.29,0.75,0.01,-0.12,1.07
739,0.02,0.21,0.93,0.01,-0.11,1.07
740,0.02,-0.23,0.95,0.01,-0.11,1.06
741,-0.08,0.12,0.70,0.01,-0.12,1.06
742,0.15,0.21,1.19,0.01,-0.12,1.06
743,-0.09,0.21,1.57,0.02,-0.12,1.07
744,0.09,0.00,1.16,0.01,-0.11,1.06
745,0.24,0.14,1.11,0.01,-0.13,1.06
746,0.12,0.20,1.36,0.02,-0.11,1.06
747,-0.03,-0.08,1.08,0.01,-0.12,1.06
748,0.70,0.08,1.22,0.02,-0.12,1.06
749,0.76,0.24,1.45,0.01,-0.12,1.07
750,0.43,0.12,1.25,0.02,-0.12,1.06
751,0.11,0.05,0.92,0.01,-0.11,1.06
752,0.29,0.29,1.10,0.02,-0.12,1.06
753,0.52,0.21,1.62,0.02,-0.13,1.06
754,0.52,0.70,1.13,0.02,-0.12,1.06
755,0.52,0.69,1.07,0.01,-0.12,1.05
756,0.61,0.63,1.71,0.01,-0.12,1.07
757,0.11,0.38,1.30,0.01,-0.12,1.07
758,0.06,0.40,0.46,0.01,-0.12,1.07
759,-0.11,0.24,0.38,0.00,-0.12,1.07
760,-0.35,0.21,0.50,0.01,-0.11,1.06
761,-0.34,0.27,0.23,0.01,-0.12,1.06
762,-0.03,-0.14,0.24,0.01,-0.11,1.06
763,-0.24,-0.09,0.64,0.02,-0.12,1.06
764,0.11,-0.06,0.60,0.02,-0.12,1.05
765,0.31,0.32,1.02,0.01,-0.12,1.06
766,0.34,0.03,1.05,0.01,-0.12,1.07
767,0.20,-0.02,0.99,0.01,-0.11,1.06
768,0.12,-0.12,0.82,0.01,-0.12,1.06
769,-0.03,0.11,0.95,0.01,-0.11,1.06
770,-0.35,-0.35,1.22,0.01,-0.12,1.06
771,-0.17,-0.12,1.16,0.02,-0.11,1.07
772,0.09,-0.15,1.21,0.02,-0.13,1.07
773,-0.17,-0.55,1.37,0.02,-0.12,1.07
774,-0.41,-0.60,0.99,0.01,-0.12,1.06
775,-0.24,-0.24,0.56,0.02,-0.12,1.06
776,0.03,0.11,0.85,0.02,-0.12,1.06
777,0.18,0.40,1.59,0.02,-0.12,1.05
778,0.41,0.58,1.15,0.02,-0.12,1.06
779,0.56,0.53,1.13,0.02,-0.13,1.05
780,0.26,0.29,1.10,0.02,-0.12,1.06
781,-0.26,0.29,0.47,0.01,-0.12,1.05
782,0.02,0.98,-0.03,0.02,-0.12,1.05
783,0.17,1.22,0.53,0.02,-0.12,1.06
784,0.09,1.13,0.64,0.01,-0.12,1.06
785,0.18,1.19,0.55,0.01,-0.11,1.06
786,0.27,0.84,0.66,0.01,-0.12,1.06
787,-0.14,0.27,0.78,0.01,-0.12,1.07
788,-0.50,0.43,0.08,0.01,-0.12,1.06
789,-0.21,0.09,0.15,0.01,-0.12,1.07
790,-0.46,0.08,0.37,0.01,-0.11,1.06
791,-0.49,0.24,0.64,0.01,-0.11,1.06
792,-0.05,-0.02,1.21,0.01,-0.12,1.06
793,0.72,-0.06,2.08,0.01,-0.12,1.07
794,0.32,0.27,1.77,0.01,-0.12,1.07
795,0.03,0.14,1.01,0.01,-0.12,1.06
796,0.02,-0.03,1.40,0.01,-0.13,1.06
797,0.05,-0.12,1.57,0.01,-0.12,1.06
798,0.09,0.03,1.54,0.02,-0.12,1.05
799,0.55,0.44,1.60,0.02,-0.12,1.06
800,0.64,0.27,1.68,0.02,-0.13,1.07
801,0.03,0.29,0.96,0.02,-0.12,1.06
802,-0.03,0.31,1.01,0.02,-0.12,1.06
803,1.02,0.27,1.45,0.02,-0.12,1.06
804,0.98,0.79,1.69,0.02,-0.12,1.06
805,0.64,0.82,0.87,0.01,-0.11,1.07
806,0.15,0.52,0.72,0.01,-0.12,1.07
807,0.06,0.40,1.34,0.01,-0.12,1.06
808,0.24,0.34,1.22,0.01,-0.11,1.06
809,0.58,0.20,1.02,0.01,-0.12,1.06
810,0.52,0.50,1.10,0.02,-0.12,1.07
811,-0.11,0.40,0.90,0.02,-0.12,1.06
812,-0.49,0.17,0.41,0.01,-0.12,1.07
813,-0.21,0.08,0.66,0.01,-0.12,1.07
814,-0.08,0.27,1.34,0.02,-0.12,1.07
815,-0.09,0.14,1.31,0.02,-0.11,1.07
816,0.09,0.20,1.07,0.02,-0.12,1.06
817,-0.12,0.41,0.95,0.01,-0.12,1.06
818,-0.43,0.26,0.78,0.02,-0.12,1.07
819,-0.12,0.08,0.44,0.02,-0.12,1.06
820,0.58,0.38,1.16,0.01,-0.12,1.07
821,0.41,0.50,1.22,0.02,-0.12,1.06
822,0.46,0.52,1.15,0.02,-0.12,1.07
823,0.60,0.49,1.34,0.01,-0.12,1.07
824,0.12,0.60,1.45,0.01,-0.11,1.07
825,-0.34,0.56,1.22,0.01,-0.11,1.07
826,0.03,0.49,0.78,0.02,-0.12,1.06
827,0.15,0.40,1.19,0.01,-0.12,1.06
828,-0.20,0.29,1.04,0.01,-0.12,1.06
829,-0.17,0.09,0.49,0.01,-0.12,1.08
830,-0.43,-0.09,0.31,0.01,-0.12,1.06
831,-0.64,-0.05,0.49,0.02,-0.12,1.05
832,-0.52,-0.17,0.23,0.01,-0.11,1.07
833,-0.17,0.17,0.26,0.02,-0.12,1.06
834,-0.05,0.08,1.05,0.02,-0.12,1.06
835,-0.23,0.14,0.64,0.02,-0.11,1.05
836,-0.03,0.31,0.40,0.02,-0.12,1.06
837,-0.15,0.29,0.64,0.01,-0.12,1.06
838,-0.46,0.15,0.70,0.02,-0.12,1.07
839,-0.32,0.40,0.23,0.01,-0.12,1.06
840,-0.18,0.17,0.64,0.01,-0.12,1.07
841,-0.60,0.58,0.52,0.02,-0.12,1.07
842,-0.50,0.41,0.26,0.02,-0.12,1.05
843,0.06,0.55,0.49,0.01,-0.13,1.07
844,0.40,0.09,1.15,0.01,-0.12,1.07
845,0.52,0.44,1.01,0.01,-0.12,1.07
846,0.23,0.20,0.67,0.01,-0.12,1.06
847,0.23,-0.03,1.28,0.02,-0.12,1.06
848,0.23,0.47,1.59,0.01,-0.12,1.05
849,0.29,0.52,1.05,0.01,-0.12,1.06
850,0.50,0.47,1.10,0.01,-0.12,1.06
851,0.32,0.32,1.11,0.01,-0.12,1.06
852,-0.03,-0.08,0.84,0.01,-0.12,1.06
853,-0.38,0.17,0.32,0.02,-0.12,1.06
854,-0.18,-0.09,0.69,0.02,-0.12,1.06
855,0.12,0.20,0.98,0.02,-0.11,1.06
856,0.60,0.38,1.51,0.02,-0.12,1.05
857,0.49,0.60,1.30,0.01,-0.12,1.07
858,0.37,0.43,1.50,0.02,-0.12,1.07
859,0.46,0.26,1.10,0.02,-0.12,1.07
860,0.35,0.26,0.64,0.02,-0.13,1.07
861,-0.11,0.26,0.89,0.02,-0.12,1.05
862,-0.26,0.50,0.60,0.02,-0.12,1.06
863,-0.12,0.31,0.14,0.01,-0.12,1.06
864,0.29,0.35,1.08,0.01,-0.12,1.05
865,0.32,0.11,1.62,0.02,-0.11,1.07
866,0.56,-0.06,1.02,0.01,-0.12,1.06
867,0.37,0.02,0.92,0.01,-0.12,1.06
868,0.20,0.12,1.51,0.02,-0.12,1.07
869,0.37,0.20,1.28,0.01,-0.12,1.06
870,0.49,0.31,1.16,0.01,-0.13,1.06
871,0.56,0.38,1.36,0.02,-0.13,1.06
872,0.02,0.31,1.13,0.01,-0.12,1.05
873,-0.12,-0.09,0.44,0.01,-0.12,1.06
874,-0.11,0.06,0.58,0.01,-0.12,1.07
875,-0.50,0.05,0.64,0.02,-0.11,1.06
876,-0.64,-0.11,0.21,0.02,-0.12,1.07
877,-0.32,0.15,0.47,0.00,-0.12,1.06
878,-0.47,0.23,0.67,0.01,-0.12,1.06
879,-0.44,0.31,0.56,0.02,-0.11,1.06
880,0.31,0.38,0.63,0.01,-0.12,1.06
881,0.38,0.17,1.16,0.01,-0.13,1.06
882,0.23,0.17,1.02,0.01,-0.11,1.07
883,0.18,0.11,0.82,0.01,-0.12,1.06
884,0.40,0.12,0.95,0.01,-0.12,1.07
885,-0.11,-0.37,0.89,0.01,-0.11,1.07
886,-0.41,-0.21,0.69,0.01,-0.12,1.06
887,-0.14,-0.34,0.92,0.01,-0.12,1.06
888,-0.29,-0.32,1.27,0.00,-0.12,1.05
889,-0.49,-0.24,0.99,0.02,-0.12,1.06
890,-0.43,-0.17,0.76,0.02,-0.13,1.06
891,-0.14,-0.06,1.01,0.02,-0.13,1.07
892,0.00,0.05,0.84,0.02,-0.12,1.06
893,0.03,0.08,0.43,0.02,-0.12,1.06
894,0.17,0.21,0.31,0.02,-0.12,1.06
895,-0.09,0.32,0.72,0.02,-0.12,1.06
896,-0.09,0.89,0.55,0.01,-0.12,1.06
897,0.63,0.75,1.01,0.02,-0.12,1.06
898,0.53,0.84,1.18,0.02,-0.12,1.06
899,0.38,1.16,0.89,0.01,-0.12,1.07
900,0.52,0.69,0.60,0.00,-0.12,1.07
901,0.18,0.24,0.41,0.01,-0.12,1.07
902,-0.46,0.23,0.20,0.01,-0.12,1.06
903,-0.43,0.40,0.18,0.01,-0.11,1.06
904,0.24,0.12,0.79,0.01,-0.11,1.06
905,0.15,0.08,1.31,0.01,-0.12,1.07
906,0.03,0.17,0.78,0.01,-0.12,1.06
907,-0.11,0.38,0.64,0.01,-0.13,1.07
908,-0.34,-0.11,0.98,0.01,-0.12,1.06
909,-0.61,-0.03,0.98,0.01,-0.12,1.06
910,-0.21,0.18,0.76,0.01,-0.12,1.07
911,0.17,0.03,1.30,0.01,-0.12,1.07
912,-0.21,-0.46,1.59,0.02,-0.11,1.06
913,-0.21,0.00,0.85,0.02,-0.11,1.06
914,0.05,0.20,0.72,0.02,-0.13,1.06
915,0.02,0.38,1.21,0.02,-0.12,1.06
916,0.35,0.24,1.15,0.02,-0.12,1.06
917,0.55,0.47,0.69,0.02,-0.12,1.06
918,0.55,0.61,0.69,0.01,-0.12,1.07
919,0.24,0.29,0.96,0.02,-0.12,1.07
920,0.32,0.18,0.46,0.01,-0.12,1.06
921,0.26,0.43,0.43,0.01,-0.12,1.06
922,-0.12,0.58,0.95,0.02,-0.12,1.06
923,-0.21,0.49,0.67,0.02,-0.12,1.07
924,0.31,0.47,0.67,0.01,-0.13,1.07
925,0.23,0.38,1.15,0.02,-0.12,1.06
926,-0.03,0.35,0.96,0.01,-0.12,1.06
927,-0.02,0.09,0.46,0.02,-0.12,1.06
928,-0.14,0.26,0.87,0.02,-0.12,1.06
929,-0.29,0.26,0.96,0.01,-0.11,1.06
930,-0.15,0.49,0.73,0.01,-0.12,1.07
931,0.21,0.29,1.31,0.01,-0.12,1.06
932,0.27,0.17,1.68,0.01,-0.12,1.06
933,-0.27,0.67,1.27,0.02,-0.12,1.06
934,-0.06,0.67,1.07,0.01,-0.12,1.06
935,0.03,0.44,1.51,0.01,-0.13,1.06
936,-0.21,0.73,0.96,0.02,-0.12,1.06
937,-0.02,0.61,0.72,0.01,-0.12,1.06
938,0.20,0.56,1.10,0.01,-0.12,1.06
939,0.17,0.46,1.08,0.01,-0.12,1.06
940,-0.05,0.21,0.81,0.01,-0.13,1.06
941,0.03,0.12,0.82,0.01,-0.13,1.05
942,0.09,0.15,1.11,0.02,-0.12,1.06
943,0.06,0.53,1.02,0.01,-0.12,1.07
944,0.03,0.26,0.76,0.01,-0.13,1.06
945,0.05,-0.03,1.15,0.01,-0.12,1.06
946,0.03,-0.09,1.16,0.01,-0.12,1.06
947,-0.14,0.09,0.78,0.02,-0.12,1.06
948,0.02,0.02,0.95,0.02,-0.12,1.06
949,-0.03,0.06,0.99,0.02,-0.13,1.06
950,-0.37,0.02,0.67,0.02,-0.12,1.06
951,-0.02,0.08,0.84,0.02,-0.12,1.06
952,0.11,0.40,1.37,0.01,-0.12,1.06
953,0.05,0.53,0.95,0.02,-0.12,1.05
954,-0.20,0.21,0.21,0.01,-0.12,1.07
955,0.03,0.24,0.70,0.02,-0.12,1.06
956,0.17,0.50,1.21,0.02,-0.12,1.05
957,0.35,0.50,0.72,0.02,-0.12,1.05
958,0.49,0.66,0.56,0.02,-0.12,1.06
959,0.09,0.26,0.92,0.01,-0.12,1.06
960,-0.37,-0.05,0.66,0.01,-0.11,1.06
961,-0.14,0.49,0.43,0.02,-0.12,1.06
962,-0.15,0.23,0.52,0.01,-0.12,1.06
963,-0.49,0.15,0.47,0.02,-0.12,1.06
964,-0.46,0.14,-0.03,0.01,-0.12,1.06
965,-0.20,0.18,0.43,0.01,-0.13,1.07
966,-0.32,0.11,1.47,0.02,-0.11,1.06
967,0.05,0.31,1.36,0.01,-0.11,1.06
968,0.47,0.47,1.21,0.01,-0.12,1.06
969,0.11,0.52,1.34,0.02,-0.12,1.06
970,-0.35,0.34,0.87,0.01,-0.12,1.06
971,0.17,0.27,0.72,0.01,-0.12,1.06
972,0.00,-0.06,0.96,0.01,-0.12,1.06
973,0.26,0.03,1.08,0.02,-0.12,1.06
974,0.34,0.08,0.69,0.02,-0.13,1.06
975,0.11,0.34,0.76,0.02,-0.12,1.06
976,-0.14,-0.05,1.18,0.01,-0.12,1.06
977,0.14,0.21,1.07,0.02,-0.12,1.05
978,0.35,0.79,0.98,0.02,-0.13,1.06
979,0.47,0.70,1.44,0.02,-0.12,1.06
980,0.17,0.73,1.45,0.02,-0.12,1.06
981,-0.14,0.66,0.79,0.02,-0.12,1.07
982,0.05,0.56,0.58,0.02,-0.13,1.06
983,-0.26,0.08,0.70,0.01,-0.12,1.06
984,-0.53,0.17,0.03,0.01,-0.12,1.06
985,-0.58,0.08,0.20,0.02,-0.12,1.06
986,-0.32,0.20,0.75,0.01,-0.12,1.06
987,-0.20,0.37,0.61,0.02,-0.12,1.06
988,0.09,0.60,0.37,0.01,-0.12,1.07
989,0.06,0.12,0.66,0.01,-0.13,1.06
990,-0.09,-0.23,0.11,0.01,-0.13,1.06
991,-0.18,-0.31,0.58,0.02,-0.12,1.06
992,-0.17,-0.35,0.53,0.01,-0.12,1.06
993,-0.21,-0.06,1.18,0.02,-0.12,1.06
994,0.24,0.15,1.21,0.02,-0.13,1.06
995,0.61,0.09,0.96,0.01,-0.12,1.07
996,-0.06,-0.05,1.25,0.02,-0.12,1.06
997,-0.29,0.15,0.84,0.02,-0.12,1.07
998,0.18,0.53,1.08,0.02,-0.13,1.06
999,0.03,0.46,1.08,0.02,-0.12,1.05
1000,-0.17,0.41,0.89,0.02,-0.12,1.06
1001,-0.06,0.38,0.70,0.01,-0.12,1.06
1002,0.26,0.58,1.22,0.01,-0.12,1.07
1003,0.11,0.43,1.59,0.02,-0.12,1.06
1004,0.09,0.75,1.22,0.02,-0.12,1.06
1005,0.49,0.66,1.21,0.01,-0.12,1.06
1006,0.40,0.76,1.74,0.01,-0.12,1.06
1007,-0.09,0.35,1.71,0.01,-0.12,1.06
1008,-0.14,0.47,1.13,0.01,-0.12,1.06
1009,-0.02,0.15,1.51,0.01,-0.12,1.05
1010,0.37,0.15,1.80,0.01,-0.12,1.06
1011,0.26,0.20,1.56,0.01,-0.12,1.07
1012,0.24,-0.41,1.19,0.01,-0.13,1.06
1013,0.35,-0.02,1.60,0.02,-0.13,1.06
1014,0.20,0.05,1.68,0.03,-0.12,1.06
1015,0.31,0.50,1.36,0.02,-0.12,1.06
