,gyro_x,gyro_y,gyro_z,acce_x,acce_y,acce_z
0,0.37,-1.19,-1.04,0.05,-0.09,1.06
1,1.11,-0.53,-0.53,0.05,-0.09,1.05
2,0.38,0.08,-1.08,0.04,-0.09,1.06
3,-0.06,0.31,-1.31,0.05,-0.08,1.07
4,0.37,-0.11,-1.34,0.04,-0.08,1.06
5,0.66,0.44,-1.79,0.04,-0.08,1.06
6,0.73,0.02,-1.76,0.04,-0.08,1.06
7,0.61,0.92,-1.39,0.04,-0.07,1.06
8,0.98,1.11,-1.50,0.03,-0.08,1.06
9,1.01,0.58,-1.56,0.03,-0.08,1.08
10,0.58,0.55,-1.21,0.02,-0.08,1.08
11,0.73,0.35,-1.04,0.02,-0.07,1.08
12,0.53,-0.72,-1.01,0.02,-0.06,1.07
13,0.37,-0.23,-0.66,0.03,-0.06,1.07
14,0.63,0.23,-0.29,0.03,-0.06,1.06
15,1.16,-0.26,-0.63,0.03,-0.08,1.07
16,0.78,-0.41,-0.70,0.02,-0.08,1.08
17,0.14,-0.85,-1.10,0.03,-0.08,1.08
18,0.02,-1.28,-1.85,0.04,-0.08,1.07
19,-0.02,-1.21,-1.92,0.05,-0.07,1.06
20,-0.21,-0.79,-2.02,0.05,-0.07,1.06
21,-0.82,-1.07,-1.91,0.05,-0.08,1.05
22,0.02,1.68,-2.18,0.05,-0.09,1.05
23,0.99,0.08,-1.92,0.05,-0.09,1.06
24,0.81,0.29,-0.24,0.07,-0.10,1.05
25,0.81,1.76,-1.05,0.06,-0.12,1.07
26,-3.86,0.60,-7.79,0.03,-0.06,1.06
27,-2.23,0.44,-3.33,0.06,-0.06,1.05
28,1.98,2.95,0.73,0.05,-0.08,1.04
29,3.02,4.98,0.47,0.04,-0.07,1.05
30,1.33,3.83,-0.40,0.02,-0.07,1.06
31,0.05,2.76,-0.81,0.01,-0.08,1.07
32,0.37,1.79,-0.24,0.01,-0.07,1.08
33,0.12,1.08,-0.72,0.01,-0.07,1.07
34,-0.29,0.99,-0.82,0.01,-0.06,1.07
35,-0.15,0.89,0.73,0.00,-0.07,1.07
36,0.53,0.29,2.00,0.01,-0.07,1.07
37,0.24,0.81,2.21,0.00,-0.07,1.07
38,-0.15,0.47,1.91,0.00,-0.07,1.07
39,-0.20,-0.31,1.89,0.01,-0.08,1.08
40,-0.49,-0.87,1.79,0.01,-0.07,1.07
41,-1.16,-1.18,1.57,0.01,-0.07,1.07
42,-1.24,-1.07,1.50,0.01,-0.07,1.06
43,-1.10,-1.66,2.17,0.03,-0.07,1.07
44,-1.04,-1.02,2.44,0.03,-0.08,1.05
45,-0.87,-0.96,2.11,0.04,-0.08,1.06
46,-1.02,-0.79,2.24,0.05,-0.08,1.05
47,-1.22,-0.52,2.03,0.05,-0.09,1.07
48,-0.95,-0.11,1.60,0.05,-0.08,1.05
49,-0.82,0.24,1.92,0.06,-0.08,1.06
50,-0.09,1.07,2.72,0.06,-0.08,1.05
51,0.41,1.65,2.78,0.06,-0.09,1.06
52,0.55,1.82,2.72,0.05,-0.09,1.05
53,-0.12,1.98,2.58,0.05,-0.09,1.06
54,-0.23,1.40,2.21,0.04,-0.08,1.06
55,0.26,1.63,2.50,0.04,-0.08,1.06
56,0.53,1.94,2.46,0.04,-0.08,1.07
57,0.17,2.11,2.26,0.04,-0.08,1.06
58,-0.14,2.03,2.11,0.04,-0.08,1.07
59,-0.21,2.21,2.18,0.04,-0.08,1.06
60,-0.12,2.20,2.27,0.04,-0.08,1.06
61,-0.03,2.37,1.89,0.03,-0.08,1.06
62,-0.11,2.67,2.09,0.02,-0.08,1.07
63,0.21,2.31,2.60,0.03,-0.08,1.06
64,0.12,2.09,2.17,0.02,-0.08,1.07
65,-0.43,1.57,0.99,0.01,-0.08,1.08
66,-2.09,1.25,0.44,0.02,-0.07,1.05
67,-0.81,1.57,2.11,0.03,-0.07,1.07
68,0.55,2.37,2.67,0.03,-0.08,1.06
69,0.84,2.55,2.89,0.03,-0.08,1.06
70,0.27,2.58,2.49,0.02,-0.08,1.07
71,-0.38,1.97,2.09,0.01,-0.08,1.08
72,-0.32,1.37,2.15,0.01,-0.08,1.08
73,-0.37,1.01,2.31,0.01,-0.08,1.07
74,-0.06,1.11,2.56,0.02,-0.08,1.06
75,-0.14,1.08,2.69,0.02,-0.08,1.06
76,-0.05,0.98,2.76,0.02,-0.08,1.06
77,-0.12,1.07,2.85,0.03,-0.09,1.06
78,-0.75,1.04,2.55,0.02,-0.09,1.07
79,-0.72,0.69,2.15,0.03,-0.09,1.07
80,-0.12,0.63,2.67,0.04,-0.09,1.06
81,-0.89,0.49,1.92,0.03,-0.09,1.07
82,-0.32,0.52,1.95,0.03,-0.09,1.07
83,0.37,1.08,3.02,0.04,-0.08,1.05
84,-0.15,1.16,2.89,0.04,-0.08,1.05
85,0.34,1.47,2.47,0.04,-0.09,1.06
86,0.82,1.68,2.95,0.05,-0.09,1.06
87,-0.21,1.82,2.50,0.03,-0.08,1.07
88,-0.44,1.66,1.86,0.03,-0.07,1.07
89,0.75,1.83,2.64,0.03,-0.09,1.06
90,0.26,1.88,2.96,0.03,-0.08,1.07
91,-0.38,1.65,2.11,0.02,-0.08,1.06
92,0.60,1.53,2.11,0.02,-0.09,1.06
93,0.58,1.79,2.79,0.02,-0.09,1.06
94,-0.52,1.68,2.05,0.02,-0.07,1.06
95,0.24,1.15,1.92,0.01,-0.08,1.06
96,1.04,1.22,3.31,0.01,-0.08,1.07
97,0.12,1.22,2.95,0.01,-0.07,1.07
98,0.56,0.58,2.32,0.01,-0.08,1.07
99,0.46,0.41,2.52,0.02,-0.09,1.07
100,-0.60,0.52,2.06,0.02,-0.08,1.08
101,-0.32,0.44,2.27,0.03,-0.08,1.07
102,0.11,0.23,2.21,0.02,-0.08,1.07
103,-0.49,0.53,2.02,0.02,-0.08,1.06
104,-0.18,0.27,2.60,0.03,-0.08,1.06
105,0.69,0.63,2.40,0.03,-0.08,1.06
106,-0.31,0.81,1.91,0.02,-0.08,1.08
107,-0.69,0.61,1.86,0.03,-0.08,1.07
108,0.24,0.67,2.60,0.04,-0.09,1.06
109,0.79,1.34,2.53,0.04,-0.08,1.06
110,0.78,1.25,2.35,0.03,-0.08,1.06
111,0.31,1.24,1.91,0.03,-0.08,1.07
112,0.32,1.19,1.89,0.03,-0.08,1.07
113,0.40,1.27,2.05,0.03,-0.08,1.07
114,0.60,1.42,2.38,0.03,-0.08,1.06
115,0.70,1.44,2.03,0.03,-0.08,1.07
116,0.61,1.44,2.03,0.03,-0.08,1.07
117,0.24,1.31,1.92,0.02,-0.08,1.07
118,0.26,1.57,1.66,0.02,-0.08,1.07
119,0.79,1.73,1.86,0.02,-0.08,1.07
120,0.73,1.40,1.80,0.02,-0.08,1.08
121,0.37,0.96,1.37,0.02,-0.08,1.07
122,0.41,0.92,1.16,0.02,-0.08,1.06
123,0.58,0.92,1.42,0.02,-0.09,1.07
124,0.21,0.92,1.79,0.02,-0.08,1.07
125,0.52,0.85,1.82,0.02,-0.07,1.06
126,0.99,1.22,2.18,0.02,-0.08,1.06
127,0.82,1.21,2.61,0.02,-0.08,1.06
128,0.44,0.79,2.32,0.03,-0.08,1.07
129,0.81,0.82,2.09,0.02,-0.08,1.07
130,0.43,0.60,1.98,0.02,-0.08,1.07
131,0.20,0.50,1.83,0.02,-0.08,1.07
132,-0.17,0.49,1.39,0.02,-0.08,1.08
133,0.14,0.58,1.83,0.02,-0.08,1.06
134,0.58,0.29,1.94,0.03,-0.08,1.06
135,0.60,0.26,1.94,0.03,-0.07,1.07
136,0.61,0.60,1.47,0.02,-0.08,1.07
137,0.23,0.53,1.54,0.02,-0.09,1.06
138,0.15,0.21,1.54,0.02,-0.08,1.05
139,0.44,0.61,1.42,0.02,-0.08,1.07
140,0.40,0.40,1.98,0.02,-0.08,1.07
141,0.63,0.58,2.06,0.03,-0.08,1.07
142,0.70,0.95,1.62,0.02,-0.08,1.06
143,0.56,0.89,1.37,0.02,-0.08,1.06
144,-0.05,0.40,1.27,0.02,-0.08,1.07
145,-0.12,0.31,1.15,0.02,-0.07,1.07
146,0.61,0.20,1.44,0.02,-0.08,1.07
147,0.35,0.09,1.74,0.02,-0.08,1.06
148,0.23,0.37,1.62,0.02,-0.07,1.07
149,0.23,0.35,1.34,0.02,-0.08,1.07
150,0.21,0.63,1.42,0.03,-0.09,1.06
151,0.18,0.32,1.25,0.02,-0.08,1.06
152,0.06,0.64,0.55,0.02,-0.08,1.07
153,0.35,0.53,0.61,0.02,-0.09,1.07
154,0.31,0.40,1.11,0.02,-0.08,1.07
155,0.06,0.52,0.78,0.02,-0.07,1.07
156,0.32,0.26,0.85,0.02,-0.08,1.07
157,0.56,0.27,1.66,0.02,-0.08,1.07
158,0.53,0.15,1.76,0.01,-0.07,1.06
159,0.52,-0.09,0.79,0.02,-0.08,1.08
160,0.05,-0.26,0.50,0.02,-0.08,1.08
161,-0.55,-0.61,0.44,0.02,-0.08,1.07
162,-0.46,-0.60,0.26,0.02,-0.08,1.07
163,-0.03,-0.64,0.23,0.03,-0.08,1.06
164,-0.29,-0.43,0.55,0.03,-0.08,1.06
165,-0.21,-0.18,0.76,0.03,-0.08,1.06
166,-0.02,0.47,0.49,0.03,-0.08,1.07
167,-0.17,0.15,0.67,0.03,-0.08,1.06
168,-0.41,0.27,0.55,0.03,-0.08,1.07
169,-0.27,0.34,0.81,0.03,-0.08,1.06
170,0.31,0.40,1.25,0.03,-0.09,1.06
171,0.27,0.82,1.16,0.02,-0.08,1.06
172,0.06,0.92,0.82,0.03,-0.08,1.06
173,0.03,1.08,0.58,0.02,-0.08,1.07
174,0.06,0.67,0.81,0.02,-0.08,1.06
175,0.21,0.44,0.63,0.01,-0.08,1.06
176,0.34,0.58,0.60,0.02,-0.08,1.07
177,0.24,0.21,0.84,0.02,-0.08,1.05
178,0.06,0.58,0.82,0.01,-0.07,1.07
179,-0.15,0.23,0.60,0.02,-0.07,1.08
180,-0.18,0.26,0.67,0.02,-0.08,1.07
181,-0.43,0.29,0.93,0.02,-0.08,1.06
182,-0.66,0.00,0.58,0.02,-0.07,1.06
183,-0.50,-0.12,0.21,0.01,-0.08,1.06
184,-0.29,-0.17,0.95,0.02,-0.08,1.06
185,-0.52,-0.24,0.84,0.03,-0.07,1.06
186,-0.78,-0.08,0.56,0.02,-0.08,1.07
187,-0.55,0.32,0.64,0.03,-0.08,1.07
188,-0.52,0.12,0.58,0.03,-0.07,1.07
189,-0.31,0.18,0.29,0.03,-0.08,1.07
190,-0.03,0.37,0.18,0.03,-0.08,1.06
191,0.26,0.23,1.05,0.03,-0.08,1.06
192,0.35,0.63,0.96,0.02,-0.07,1.06
193,0.81,0.64,1.24,0.03,-0.08,1.06
194,0.63,0.93,1.82,0.03,-0.08,1.06
195,0.29,0.63,1.50,0.02,-0.07,1.07
196,0.18,0.60,0.96,0.03,-0.08,1.07
197,0.15,0.58,0.85,0.02,-0.08,1.07
198,-0.11,0.53,0.89,0.02,-0.08,1.07
199,-0.31,0.40,0.72,0.02,-0.08,1.06
200,-0.26,0.31,0.47,0.02,-0.08,1.07
201,-0.32,0.43,1.22,0.02,-0.08,1.07
202,-0.52,0.60,0.87,0.03,-0.08,1.06
203,-0.31,0.53,1.11,0.02,-0.08,1.07
204,-0.03,0.50,1.50,0.02,-0.08,1.07
205,-0.05,0.43,1.15,0.02,-0.08,1.06
206,-0.03,0.61,1.15,0.02,-0.08,1.06
207,0.09,0.76,1.37,0.02,-0.08,1.06
208,-0.09,0.66,1.59,0.02,-0.07,1.07
209,0.05,0.63,1.47,0.03,-0.08,1.07
210,0.00,0.76,1.19,0.02,-0.08,1.08
211,-0.34,0.52,1.15,0.01,-0.08,1.07
212,-0.67,0.46,0.89,0.01,-0.08,1.07
213,-0.37,0.34,0.70,0.02,-0.07,1.08
214,-0.14,0.46,1.18,0.02,-0.08,1.07
215,-0.05,0.47,1.54,0.02,-0.08,1.07
216,-0.26,0.72,0.82,0.02,-0.08,1.07
217,0.02,0.69,1.22,0.02,-0.09,1.07
218,-0.11,0.44,1.31,0.02,-0.08,1.07
219,-0.34,0.24,0.84,0.02,-0.08,1.07
220,0.00,0.41,0.98,0.02,-0.08,1.06
221,-0.08,0.38,1.27,0.03,-0.09,1.07
222,-0.17,0.31,1.30,0.02,-0.08,1.08
223,-0.12,0.38,0.67,0.03,-0.09,1.07
224,0.05,0.26,1.11,0.03,-0.08,1.07
225,-0.29,0.64,1.05,0.03,-0.07,1.06
226,0.05,0.66,1.10,0.02,-0.08,1.07
227,0.24,0.81,0.85,0.02,-0.09,1.07
228,-0.18,0.78,0.89,0.02,-0.08,1.06
229,-0.52,0.90,0.52,0.02,-0.08,1.06
230,-0.46,0.73,0.35,0.02,-0.08,1.06
231,-0.14,0.85,1.11,0.02,-0.09,1.05
232,-0.31,0.73,1.05,0.02,-0.08,1.06
233,-0.09,1.07,0.93,0.01,-0.08,1.07
234,-0.17,0.93,1.11,0.02,-0.08,1.07
235,-0.58,1.04,1.28,0.01,-0.08,1.07
236,-0.44,0.93,0.98,0.02,-0.08,1.06
237,-0.17,0.76,1.02,0.01,-0.09,1.07
238,-0.26,0.66,1.53,0.02,-0.08,1.07
239,-0.75,0.38,1.08,0.01,-0.08,1.06
240,-0.31,0.27,1.08,0.02,-0.09,1.06
241,0.03,0.15,1.40,0.02,-0.08,1.07
242,-0.20,0.29,1.22,0.03,-0.08,1.07
243,-0.06,0.29,1.13,0.03,-0.08,1.07
244,0.29,0.15,1.54,0.02,-0.09,1.07
245,0.21,0.64,2.08,0.02,-0.09,1.07
246,-0.06,0.61,1.36,0.03,-0.08,1.08
247,0.00,0.58,0.96,0.02,-0.09,1.07
248,-0.17,0.31,1.18,0.02,-0.08,1.06
249,-0.70,0.34,0.63,0.02,-0.08,1.06
250,-0.41,0.56,0.34,0.03,-0.08,1.07
251,-0.14,0.72,0.73,0.03,-0.08,1.06
252,-0.37,0.72,0.96,0.02,-0.08,1.07
253,0.03,0.67,0.75,0.03,-0.09,1.06
254,0.47,0.84,0.52,0.02,-0.08,1.06
255,-0.03,1.15,0.64,0.02,-0.08,1.06
256,-0.66,0.82,0.23,0.02,-0.08,1.06
257,-0.40,0.73,0.40,0.02,-0.08,1.07
258,-0.40,0.41,1.15,0.01,-0.08,1.06
259,-0.70,0.56,0.95,0.02,-0.08,1.07
260,-0.81,0.38,0.56,0.02,-0.08,1.06
261,-0.89,0.41,0.82,0.01,-0.08,1.06
262,-1.10,0.27,1.30,0.02,-0.08,1.07
263,-0.98,0.15,0.60,0.02,-0.08,1.06
264,-0.50,0.29,1.01,0.03,-0.08,1.07
265,-0.20,0.53,1.94,0.03,-0.08,1.06
266,-0.24,0.61,1.82,0.03,-0.08,1.07
267,0.15,0.66,1.39,0.02,-0.09,1.07
268,-0.15,0.64,1.22,0.02,-0.09,1.06
269,-0.47,0.37,0.43,0.02,-0.07,1.06
270,-0.84,0.72,0.15,0.02,-0.08,1.05
271,-0.35,0.96,0.66,0.02,-0.09,1.06
272,-0.18,1.22,0.70,0.03,-0.08,1.06
273,-0.32,1.37,0.49,0.02,-0.08,1.06
274,0.00,1.34,0.52,0.02,-0.08,1.06
275,-0.32,0.95,0.81,0.01,-0.08,1.07
276,-0.47,1.07,0.49,0.01,-0.08,1.07
277,-0.40,0.67,0.35,0.01,-0.08,1.06
278,0.03,0.40,1.11,0.02,-0.09,1.07
279,0.08,0.37,1.25,0.02,-0.08,1.07
280,0.17,0.46,0.79,0.01,-0.09,1.07
281,-0.21,0.44,0.75,0.02,-0.08,1.06
282,-0.73,0.24,1.07,0.02,-0.08,1.06
283,-0.27,0.41,0.92,0.02,-0.09,1.07
284,0.00,-0.03,0.87,0.02,-0.09,1.08
285,-0.44,-0.23,0.70,0.03,-0.09,1.06
286,-0.75,-0.05,0.24,0.02,-0.08,1.06
287,-0.98,0.44,0.24,0.02,-0.09,1.07
288,-0.32,0.63,0.96,0.02,-0.08,1.06
289,0.06,0.46,1.34,0.02,-0.08,1.06
290,0.26,0.60,0.96,0.02,-0.08,1.07
291,0.44,0.60,1.30,0.03,-0.09,1.05
292,0.24,0.35,1.59,0.02,-0.08,1.07
293,0.66,0.24,1.37,0.02,-0.08,1.08
294,0.95,0.38,1.27,0.02,-0.09,1.07
295,1.21,0.24,1.71,0.03,-0.09,1.06
296,0.72,0.17,1.37,0.02,-0.08,1.07
297,0.53,0.03,0.96,0.02,-0.08,1.07
298,0.34,0.20,1.40,0.02,-0.08,1.06
299,0.37,0.20,1.48,0.02,-0.08,1.07
300,0.53,0.37,1.27,0.01,-0.09,1.06
301,0.63,0.35,1.13,0.02,-0.09,1.06
302,0.29,0.17,1.31,0.02,-0.08,1.08
303,0.06,-0.08,0.92,0.02,-0.08,1.07
304,-0.08,0.12,0.41,0.03,-0.09,1.06
305,-0.18,0.31,0.98,0.02,-0.09,1.06
306,-0.09,0.67,1.18,0.02,-0.08,1.05
307,0.34,0.47,0.90,0.02,-0.09,1.06
308,0.40,0.50,1.01,0.02,-0.10,1.07
309,-0.12,0.61,1.02,0.02,-0.08,1.07
310,-0.08,0.40,0.95,0.02,-0.08,1.07
311,0.37,0.66,1.01,0.02,-0.08,1.07
312,0.26,0.47,1.50,0.01,-0.09,1.06
313,0.61,0.41,1.57,0.02,-0.09,1.06
314,0.67,0.52,1.30,0.02,-0.08,1.07
315,0.85,0.40,1.65,0.02,-0.08,1.06
316,0.24,0.38,1.31,0.01,-0.08,1.06
317,-0.03,0.27,0.84,0.01,-0.09,1.07
318,0.35,0.27,1.08,0.02,-0.08,1.08
319,0.38,0.17,1.40,0.02,-0.08,1.07
320,0.06,-0.29,1.05,0.02,-0.08,1.07
321,0.18,-0.18,0.90,0.03,-0.08,1.07
322,0.00,0.09,1.16,0.03,-0.08,1.06
323,-0.35,0.34,0.69,0.03,-0.08,1.06
324,-0.60,0.03,0.43,0.03,-0.08,1.07
325,-0.05,-0.03,0.81,0.02,-0.09,1.07
326,-0.06,-0.17,0.92,0.03,-0.08,1.07
327,0.12,0.29,0.75,0.03,-0.08,1.06
328,0.24,0.50,0.89,0.02,-0.09,1.06
329,0.18,0.44,1.40,0.03,-0.08,1.07
330,0.02,0.52,1.22,0.02,-0.08,1.06
331,0.37,0.47,0.99,0.02,-0.08,1.07
332,0.17,0.55,1.19,0.02,-0.08,1.07
333,0.11,0.66,1.16,0.02,-0.08,1.06
334,0.00,0.76,0.81,0.02,-0.09,1.06
335,0.24,0.70,1.15,0.01,-0.08,1.07
336,0.21,0.89,1.42,0.02,-0.08,1.06
337,0.32,0.78,1.31,0.02,-0.08,1.06
338,0.31,0.49,0.76,0.02,-0.08,1.06
339,-0.03,0.44,1.13,0.01,-0.09,1.06
340,-0.24,0.32,1.08,0.01,-0.07,1.06
341,0.35,0.52,1.42,0.02,-0.08,1.07
342,0.93,0.43,1.82,0.02,-0.09,1.07
343,0.52,-0.06,1.69,0.02,-0.09,1.07
344,-0.03,0.11,0.78,0.02,-0.08,1.07
345,-0.02,0.12,0.75,0.02,-0.08,1.07
346,0.03,0.14,1.25,0.02,-0.09,1.06
347,-0.11,0.41,1.02,0.02,-0.08,1.05
348,0.15,0.29,0.43,0.02,-0.08,1.07
349,-0.09,0.24,0.61,0.02,-0.08,1.06
350,-0.34,0.34,0.90,0.02,-0.08,1.07
351,-0.15,0.26,0.81,0.02,-0.09,1.07
352,-0.15,0.14,1.01,0.02,-0.09,1.07
353,-0.17,0.08,0.89,0.02,-0.08,1.06
354,-0.32,0.38,0.46,0.02,-0.09,1.07
355,-0.35,0.53,0.27,0.02,-0.09,1.07
356,-0.11,0.72,1.02,0.03,-0.08,1.06
357,0.14,0.64,0.99,0.02,-0.08,1.06
358,0.40,0.63,0.95,0.02,-0.09,1.06
359,0.27,0.46,1.39,0.02,-0.08,1.07
360,0.06,0.27,1.08,0.02,-0.08,1.07
361,0.05,-0.08,0.85,0.01,-0.09,1.08
362,-0.03,-0.14,1.36,0.02,-0.09,1.06
363,0.03,-0.15,1.40,0.02,-0.09,1.06
364,0.12,0.17,1.30,0.02,-0.08,1.06
365,-0.03,0.02,1.19,0.02,-0.09,1.07
366,-0.11,-0.08,1.34,0.02,-0.08,1.07
367,-0.17,0.23,1.31,0.02,-0.09,1.07
368,0.26,0.34,1.16,0.03,-0.08,1.06
369,0.00,0.26,1.19,0.03,-0.09,1.06
370,-0.21,0.40,1.19,0.03,-0.08,1.06
371,0.18,0.56,0.76,0.03,-0.09,1.07
372,0.26,0.87,0.87,0.03,-0.09,1.05
373,0.14,0.93,1.28,0.03,-0.09,1.07
374,0.18,0.92,1.16,0.02,-0.09,1.06
375,0.24,1.10,1.05,0.01,-0.08,1.07
376,-0.02,0.98,1.05,0.02,-0.08,1.06
377,-0.14,0.90,0.79,0.01,-0.08,1.07
378,0.18,0.70,0.72,0.01,-0.09,1.07
379,0.40,0.60,1.01,0.01,-0.08,1.07
380,0.15,0.44,1.27,0.01,-0.09,1.07
381,-0.14,-0.05,0.70,0.01,-0.08,1.06
382,-0.23,-0.05,0.82,0.01,-0.08,1.08
383,-0.40,-0.29,0.85,0.01,-0.08,1.07
384,-0.53,-0.49,1.11,0.02,-0.08,1.07
385,-0.20,-0.32,0.98,0.02,-0.09,1.07
386,-0.24,-0.06,1.21,0.02,-0.09,1.06
387,-0.24,-0.08,1.42,0.03,-0.08,1.07
388,-0.02,0.32,1.51,0.02,-0.08,1.07
389,0.18,0.15,1.69,0.03,-0.09,1.07
390,0.11,0.29,1.36,0.03,-0.09,1.07
391,-0.12,0.35,1.19,0.03,-0.09,1.06
392,0.29,0.70,0.96,0.03,-0.09,1.06
393,0.27,0.55,1.02,0.03,-0.08,1.07
394,0.38,0.61,0.63,0.02,-0.08,1.06
395,0.34,0.81,0.44,0.02,-0.09,1.07
396,0.27,0.34,0.76,0.02,-0.08,1.07
397,0.00,0.34,0.95,0.02,-0.09,1.08
398,-0.03,0.31,0.73,0.02,-0.08,1.06
399,0.35,0.52,0.92,0.02,-0.08,1.05
400,0.06,0.24,1.19,0.02,-0.08,1.07
401,-0.06,0.46,0.63,0.02,-0.08,1.07
402,-0.11,0.34,0.61,0.02,-0.09,1.07
403,-0.18,0.27,0.63,0.01,-0.09,1.07
404,-0.52,0.12,0.40,0.02,-0.08,1.07
405,-0.21,0.20,0.52,0.02,-0.08,1.08
406,0.26,0.32,0.92,0.02,-0.09,1.07
407,0.29,0.31,0.89,0.02,-0.08,1.06
408,0.14,0.50,0.76,0.02,-0.08,1.06
409,-0.12,1.08,0.20,0.02,-0.09,1.07
410,-0.15,0.55,0.41,0.02,-0.09,1.05
411,-0.09,0.46,0.47,0.02,-0.09,1.06
412,0.06,0.58,0.84,0.03,-0.08,1.07
413,0.47,0.67,1.50,0.01,-0.08,1.06
414,0.49,0.46,1.57,0.02,-0.08,1.06
415,0.31,0.64,1.08,0.01,-0.08,1.06
416,0.38,0.37,1.07,0.02,-0.09,1.06
417,-0.05,-0.37,1.18,0.01,-0.08,1.06
418,-0.29,-0.12,0.75,0.02,-0.08,1.07
419,-0.20,0.23,0.63,0.02,-0.08,1.06
420,-0.24,0.11,0.79,0.02,-0.08,1.07
421,-0.20,0.17,0.98,0.02,-0.08,1.06
422,-0.02,0.11,0.67,0.03,-0.09,1.07
423,0.26,-0.05,0.73,0.02,-0.09,1.07
424,-0.02,0.05,0.72,0.03,-0.09,1.06
425,-0.31,0.23,0.40,0.03,-0.07,1.06
426,-0.08,0.27,0.44,0.02,-0.09,1.07
427,-0.12,0.32,0.55,0.03,-0.08,1.06
428,0.35,0.72,1.25,0.03,-0.08,1.06
429,1.04,0.79,1.45,0.02,-0.09,1.06
430,0.79,0.72,1.37,0.02,-0.09,1.07
431,0.18,0.63,0.95,0.02,-0.08,1.06
432,0.38,0.52,1.05,0.02,-0.09,1.07
433,0.31,0.29,1.13,0.02,-0.09,1.07
434,0.53,0.26,0.92,0.02,-0.09,1.07
435,0.08,0.26,0.55,0.02,-0.08,1.07
436,0.03,0.35,0.82,0.02,-0.08,1.07
437,0.02,0.49,1.18,0.01,-0.08,1.07
438,0.00,0.00,1.08,0.01,-0.09,1.06
439,0.00,-0.02,0.95,0.02,-0.08,1.06
440,0.15,0.09,0.92,0.02,-0.09,1.06
441,-0.27,0.06,0.87,0.02,-0.09,1.06
442,-0.31,0.18,0.95,0.02,-0.09,1.07
443,0.05,0.08,0.93,0.02,-0.08,1.07
444,0.03,-0.18,1.25,0.03,-0.09,1.07
445,-0.18,0.03,0.84,0.02,-0.08,1.07
446,-0.24,-0.14,0.50,0.02,-0.08,1.06
447,-0.56,-0.09,0.79,0.02,-0.08,1.05
448,-0.29,0.20,1.24,0.03,-0.08,1.07
449,0.41,0.44,1.54,0.02,-0.09,1.06
450,0.70,0.46,1.31,0.02,-0.09,1.07
451,0.20,0.26,1.36,0.02,-0.09,1.06
452,-0.26,0.17,0.93,0.01,-0.09,1.07
453,0.14,-0.06,1.15,0.02,-0.09,1.07
454,-0.31,-0.06,0.99,0.02,-0.08,1.06
455,-0.27,0.03,0.64,0.02,-0.09,1.06
456,0.41,0.14,0.90,0.03,-0.09,1.06
457,0.53,0.08,1.40,0.02,-0.09,1.07
458,0.17,0.29,1.18,0.02,-0.08,1.06
459,0.18,0.08,0.79,0.02,-0.09,1.06
460,0.52,0.32,1.01,0.01,-0.09,1.06
461,0.63,0.14,1.68,0.02,-0.08,1.07
462,0.79,0.08,1.57,0.03,-0.08,1.06
463,0.32,0.20,1.27,0.02,-0.08,1.07
464,0.15,0.15,1.45,0.02,-0.09,1.06
465,-0.09,0.03,1.40,0.02,-0.08,1.07
466,-0.11,-0.38,1.28,0.02,-0.08,1.06
467,-0.09,-0.32,1.11,0.02,-0.08,1.07
468,-0.52,-0.49,1.24,0.02,-0.08,1.06
469,-0.53,-0.23,0.85,0.02,-0.09,1.07
470,-0.40,-0.15,0.53,0.02,-0.09,1.06
471,-0.34,0.20,0.87,0.02,-0.09,1.05
472,-0.18,0.40,0.82,0.03,-0.09,1.06
473,0.08,0.58,0.55,0.02,-0.09,1.06
474,0.41,0.44,1.08,0.02,-0.09,1.06
475,0.35,0.38,1.10,0.02,-0.09,1.06
476,0.31,0.56,0.66,0.02,-0.09,1.06
477,0.11,0.72,0.53,0.02,-0.09,1.07
478,0.12,0.90,0.87,0.02,-0.08,1.05
479,0.14,0.76,1.01,0.02,-0.08,1.06
480,0.61,0.78,1.16,0.01,-0.09,1.06
481,0.63,0.60,1.21,0.01,-0.09,1.07
482,0.14,0.47,0.92,0.01,-0.09,1.07
483,0.31,0.09,1.11,0.02,-0.09,1.06
484,0.29,-0.17,1.39,0.01,-0.09,1.07
485,0.09,0.12,1.50,0.02,-0.08,1.06
486,-0.12,0.32,1.07,0.02,-0.08,1.06
487,-0.15,0.32,1.31,0.02,-0.09,1.07
488,-0.34,0.11,1.73,0.02,-0.09,1.07
489,-0.15,-0.17,1.59,0.03,-0.08,1.07
490,-0.06,-0.08,1.04,0.02,-0.09,1.07
491,-0.35,-0.26,1.27,0.02,-0.09,1.07
492,-0.31,-0.12,1.04,0.03,-0.10,1.06
493,-0.20,0.27,0.95,0.03,-0.09,1.07
494,-0.11,0.41,0.84,0.03,-0.09,1.06
495,-0.14,0.69,0.96,0.03,-0.08,1.07
496,0.09,0.69,0.87,0.03,-0.09,1.06
497,0.67,0.35,1.01,0.02,-0.08,1.07
498,0.23,0.49,0.85,0.02,-0.09,1.06
499,-0.41,0.41,0.44,0.03,-0.09,1.07
500,0.02,0.43,0.32,0.02,-0.09,1.07
501,0.17,0.46,1.27,0.02,-0.08,1.06
502,0.53,0.21,1.54,0.02,-0.08,1.07
503,0.84,0.66,1.36,0.02,-0.09,1.07
504,0.56,0.46,1.11,0.01,-0.09,1.07
505,-0.05,0.21,0.99,0.01,-0.09,1.07
506,0.06,-0.05,1.16,0.02,-0.08,1.07
507,0.26,0.06,0.93,0.02,-0.09,1.06
508,0.46,0.00,1.51,0.02,-0.09,1.07
509,0.24,0.12,1.21,0.03,-0.08,1.07
510,0.15,0.02,0.90,0.02,-0.08,1.07
511,0.05,0.27,0.89,0.02,-0.09,1.06
512,-0.17,0.14,1.02,0.02,-0.08,1.06
513,0.12,0.43,1.22,0.03,-0.08,1.06
514,0.66,0.17,1.33,0.02,-0.09,1.06
515,0.63,0.15,1.39,0.02,-0.09,1.08
516,0.17,0.15,0.90,0.02,-0.09,1.07
517,0.23,0.31,1.10,0.02,-0.09,1.07
518,0.29,-0.14,1.54,0.02,-0.09,1.06
519,0.47,0.35,1.86,0.03,-0.08,1.06
520,0.55,0.56,1.33,0.02,-0.08,1.06
521,0.53,0.49,1.24,0.02,-0.09,1.07
522,-0.06,0.44,1.31,0.02,-0.08,1.07
523,0.14,0.32,1.07,0.02,-0.09,1.06
524,0.32,0.34,0.95,0.02,-0.09,1.07
525,0.21,0.02,1.10,0.02,-0.08,1.07
526,-0.20,0.29,0.85,0.02,-0.08,1.06
527,0.03,0.23,0.38,0.02,-0.08,1.06
528,0.02,0.43,0.78,0.02,-0.08,1.07
529,0.27,0.49,1.50,0.03,-0.08,1.07
530,0.40,0.43,1.42,0.02,-0.08,1.08
531,0.58,0.73,1.25,0.02,-0.08,1.07
532,0.55,0.47,1.51,0.03,-0.08,1.07
533,0.23,0.49,0.93,0.02,-0.08,1.07
534,-0.15,0.44,0.76,0.02,-0.08,1.07
535,-0.20,0.41,0.92,0.02,-0.08,1.06
536,0.06,0.35,1.15,0.02,-0.08,1.07
537,0.24,0.38,0.96,0.02,-0.08,1.06
538,0.23,0.18,1.15,0.02,-0.08,1.07
539,-0.12,0.20,1.33,0.02,-0.08,1.07
540,-0.14,0.37,1.11,0.02,-0.08,1.07
541,0.08,0.26,1.13,0.03,-0.08,1.07
542,0.37,0.18,1.63,0.03,-0.09,1.07
543,0.24,0.34,1.30,0.02,-0.09,1.08
544,0.35,0.32,0.98,0.02,-0.09,1.07
545,-0.06,0.26,1.11,0.02,-0.08,1.08
546,-0.14,-0.08,0.98,0.03,-0.08,1.07
547,-0.34,-0.02,0.31,0.02,-0.09,1.07
548,-0.34,-0.03,0.40,0.02,-0.08,1.06
549,-0.43,0.21,0.82,0.03,-0.08,1.06
550,-0.18,0.52,1.04,0.03,-0.08,1.06
551,0.06,0.84,0.95,0.02,-0.08,1.06
552,-0.02,0.76,1.24,0.03,-0.09,1.07
553,-0.21,0.98,0.90,0.02,-0.09,1.06
554,-0.38,0.67,0.79,0.02,-0.08,1.07
555,-0.14,0.53,1.10,0.02,-0.09,1.06
556,-0.17,0.55,1.33,0.02,-0.08,1.07
557,-0.03,0.92,1.13,0.02,-0.08,1.06
558,0.03,0.55,1.18,0.02,-0.09,1.08
559,0.00,0.38,1.39,0.02,-0.09,1.07
560,0.00,0.29,1.11,0.02,-0.08,1.07
561,0.18,0.66,0.67,0.02,-0.09,1.07
562,-0.08,0.26,1.21,0.02,-0.09,1.06
563,0.15,0.15,1.40,0.02,-0.08,1.08
564,0.49,0.03,1.39,0.02,-0.08,1.07
565,0.32,-0.21,1.30,0.01,-0.08,1.07
566,-0.17,-0.20,1.54,0.02,-0.09,1.07
567,-0.31,-0.11,1.08,0.02,-0.09,1.06
568,-0.52,-0.26,0.82,0.03,-0.09,1.07
569,-0.60,-0.35,1.25,0.03,-0.08,1.07
570,-0.69,-0.08,1.45,0.03,-0.09,1.06
571,0.27,-0.02,1.69,0.03,-0.08,1.05
572,0.41,0.08,1.98,0.03,-0.09,1.05
573,0.14,0.31,1.66,0.03,-0.08,1.06
574,-0.12,0.50,1.19,0.02,-0.09,1.07
575,0.26,0.29,0.89,0.02,-0.08,1.06
576,0.55,0.82,1.08,0.02,-0.09,1.07
577,1.18,0.87,1.19,0.03,-0.09,1.06
578,1.54,1.21,1.25,0.02,-0.09,1.07
579,1.19,0.95,1.30,0.02,-0.08,1.06
580,0.61,1.01,0.85,0.02,-0.08,1.07
581,0.90,1.15,1.07,0.02,-0.09,1.06
582,1.30,1.19,2.11,0.02,-0.08,1.06
583,1.27,1.13,2.29,0.01,-0.08,1.07
584,1.60,1.27,1.86,0.01,-0.08,1.07
585,1.19,0.63,1.60,0.01,-0.09,1.08
586,0.52,-0.09,1.54,0.00,-0.08,1.08
587,0.29,-0.17,1.08,0.01,-0.08,1.07
588,0.52,-0.14,0.99,0.02,-0.08,1.07
589,0.26,-0.24,1.47,0.02,-0.08,1.06
590,-0.18,-0.17,1.28,0.02,-0.08,1.06
591,-0.08,-0.11,0.95,0.02,-0.08,1.06
592,0.14,-0.21,1.16,0.03,-0.09,1.06
593,-0.12,-0.31,1.28,0.03,-0.09,1.06
594,0.06,0.29,1.05,0.03,-0.09,1.06
595,0.56,0.58,1.65,0.02,-0.09,1.06
596,0.96,0.72,2.05,0.03,-0.09,1.06
597,0.67,0.92,1.69,0.03,-0.09,1.06
598,0.67,0.84,1.08,0.03,-0.09,1.06
599,0.58,0.95,1.31,0.03,-0.08,1.06
600,0.41,0.81,1.36,0.03,-0.08,1.06
601,0.44,1.11,1.21,0.02,-0.08,1.06
602,0.67,0.89,1.18,0.02,-0.09,1.06
603,0.49,0.67,1.59,0.02,-0.08,1.07
604,0.27,0.52,1.04,0.01,-0.08,1.07
605,0.31,0.26,0.98,0.01,-0.08,1.07
606,0.23,0.26,0.98,0.02,-0.09,1.07
607,-0.14,0.21,0.90,0.02,-0.08,1.07
608,0.26,0.47,1.45,0.02,-0.08,1.07
609,0.34,0.58,1.65,0.01,-0.09,1.06
610,0.14,-0.09,1.82,0.02,-0.08,1.07
611,0.02,0.24,1.24,0.02,-0.08,1.07
612,0.08,0.17,1.11,0.02,-0.08,1.07
613,-0.23,0.49,1.22,0.02,-0.08,1.06
614,-0.40,0.44,0.56,0.02,-0.08,1.07
615,-0.37,0.38,0.37,0.02,-0.09,1.07
616,-0.17,0.23,0.78,0.02,-0.08,1.07
617,-0.09,0.70,1.33,0.03,-0.08,1.06
618,0.03,0.85,0.75,0.02,-0.08,1.06
619,-0.05,0.67,0.75,0.01,-0.09,1.07
620,-0.26,0.98,1.04,0.02,-0.08,1.06
621,-0.27,0.52,0.61,0.01,-0.08,1.06
622,-0.20,0.75,0.64,0.02,-0.08,1.06
623,-0.37,0.72,1.10,0.03,-0.08,1.06
624,-0.47,0.82,0.75,0.02,-0.08,1.06
625,-0.18,0.99,0.64,0.02,-0.08,1.08
626,-0.15,0.63,1.44,0.02,-0.09,1.07
627,-0.23,0.55,1.08,0.02,-0.09,1.07
628,0.21,0.55,0.87,0.02,-0.09,1.07
629,0.63,0.56,1.19,0.02,-0.09,1.07
630,0.24,0.52,1.28,0.02,-0.09,1.06
631,-0.03,0.20,0.90,0.02,-0.08,1.06
632,0.12,0.35,0.85,0.02,-0.08,1.06
633,0.27,0.61,1.27,0.01,-0.08,1.06
634,0.24,0.50,0.99,0.02,-0.09,1.06
635,0.38,0.70,0.75,0.02,-0.08,1.06
636,0.00,0.64,0.85,0.02,-0.09,1.07
637,-0.43,0.46,0.55,0.01,-0.08,1.07
638,-0.40,0.52,0.46,0.02,-0.08,1.06
639,0.09,0.70,0.55,0.02,-0.08,1.06
640,-0.20,0.50,0.82,0.02,-0.08,1.06
641,-0.53,0.58,0.60,0.02,-0.08,1.07
642,-0.15,0.69,0.98,0.02,-0.08,1.06
643,0.02,0.38,1.27,0.02,-0.08,1.06
644,-0.24,0.41,1.30,0.02,-0.09,1.05
645,0.17,0.32,1.18,0.02,-0.09,1.07
646,0.40,0.26,1.31,0.02,-0.09,1.07
647,0.46,0.23,1.63,0.02,-0.09,1.06
648,0.32,0.32,1.04,0.02,-0.09,1.07
649,0.38,0.23,0.69,0.02,-0.09,1.06
650,0.18,0.05,1.24,0.02,-0.09,1.06
651,0.06,0.24,1.33,0.02,-0.09,1.06
652,0.24,0.50,0.90,0.02,-0.09,1.07
653,0.41,0.69,1.22,0.03,-0.08,1.06
654,-0.18,0.50,1.27,0.02,-0.08,1.06
655,-0.03,0.60,0.63,0.02,-0.08,1.07
656,0.24,0.32,0.92,0.01,-0.09,1.06
657,0.14,0.14,1.31,0.01,-0.08,1.07
658,0.26,0.02,1.18,0.02,-0.08,1.07
659,0.37,0.34,0.87,0.02,-0.08,1.07
660,0.15,0.05,1.45,0.02,-0.08,1.06
661,0.08,0.21,1.40,0.02,-0.08,1.06
662,0.50,0.58,1.15,0.02,-0.09,1.06
663,0.63,0.20,1.40,0.02,-0.09,1.06
664,0.21,-0.24,1.10,0.01,-0.08,1.06
665,-0.21,-0.12,0.50,0.02,-0.08,1.07
666,-0.37,-0.20,0.72,0.02,-0.09,1.07
667,-0.31,-0.23,1.11,0.02,-0.09,1.07
668,-0.20,-0.17,0.89,0.02,-0.08,1.07
669,-0.23,-0.31,0.29,0.03,-0.08,1.07
670,-0.05,-0.31,1.27,0.02,-0.09,1.07
671,-0.32,0.08,1.15,0.02,-0.09,1.07
672,-0.09,0.03,0.50,0.03,-0.08,1.07
673,0.12,0.15,0.76,0.03,-0.09,1.06
674,-0.05,0.35,1.05,0.03,-0.09,1.06
675,-0.06,0.67,0.66,0.03,-0.08,1.07
676,0.43,0.99,1.19,0.03,-0.09,1.07
677,0.66,0.81,1.27,0.02,-0.08,1.06
678,0.11,0.75,0.93,0.02,-0.09,1.07
679,-0.02,0.79,0.60,0.02,-0.08,1.07
680,0.02,0.60,0.52,0.03,-0.08,1.07
681,-0.31,0.58,0.47,0.02,-0.08,1.06
682,0.05,0.99,0.99,0.02,-0.09,1.06
683,0.85,0.89,1.54,0.02,-0.09,1.06
684,0.90,0.75,1.63,0.01,-0.09,1.07
685,0.38,0.26,1.07,0.01,-0.08,1.07
686,0.17,0.14,0.69,0.01,-0.08,1.07
687,0.00,-0.06,1.13,0.02,-0.08,1.06
688,0.15,0.06,1.53,0.02,-0.08,1.07
689,0.32,-0.15,1.19,0.01,-0.08,1.06
690,0.20,-0.21,1.57,0.02,-0.08,1.06
691,0.09,-0.24,1.47,0.02,-0.08,1.07
692,-0.34,-0.05,0.92,0.03,-0.08,1.06
693,-0.40,-0.05,0.93,0.02,-0.09,1.07
694,-0.29,-0.23,1.59,0.02,-0.09,1.06
695,-0.06,-0.09,1.21,0.02,-0.09,1.06
696,0.06,0.15,0.55,0.03,-0.09,1.06
697,-0.20,0.23,0.87,0.03,-0.09,1.07
698,-0.37,0.31,0.85,0.02,-0.09,1.07
699,0.05,0.50,0.87,0.03,-0.09,1.07
700,0.43,0.61,1.33,0.02,-0.08,1.06
701,0.64,0.64,1.56,0.02,-0.08,1.06
702,0.34,0.89,0.95,0.02,-0.08,1.07
703,0.38,0.49,0.82,0.02,-0.08,1.06
704,0.26,0.12,1.11,0.02,-0.08,1.06
705,0.12,0.40,0.99,0.02,-0.09,1.07
706,0.53,0.43,0.93,0.02,-0.08,1.07
707,0.27,0.20,0.92,0.02,-0.09,1.07
708,0.26,0.18,1.22,0.02,-0.08,1.06
709,0.20,0.34,1.13,0.03,-0.08,1.07
710,0.44,0.23,1.15,0.02,-0.09,1.08
711,0.41,0.20,1.50,0.02,-0.09,1.06
712,0.09,0.11,1.10,0.02,-0.09,1.06
713,0.60,0.18,0.72,0.02,-0.09,1.07
714,0.31,0.26,1.01,0.02,-0.09,1.06
715,0.20,0.38,1.19,0.02,-0.09,1.05
716,0.35,0.63,1.15,0.02,-0.08,1.05
717,0.76,0.47,1.56,0.02,-0.09,1.07
718,0.29,0.35,1.51,0.02,-0.08,1.07
719,0.00,0.31,0.79,0.02,-0.09,1.07
720,0.05,0.63,0.73,0.02,-0.08,1.07
721,0.11,0.17,1.50,0.01,-0.08,1.07
722,0.21,0.06,1.31,0.01,-0.08,1.07
723,0.29,0.27,0.95,0.02,-0.08,1.07
724,0.24,0.23,1.59,0.01,-0.08,1.07
725,-0.12,-0.05,1.74,0.02,-0.08,1.07
726,0.00,-0.09,1.22,0.02,-0.08,1.07
727,-0.02,-0.24,0.93,0.02,-0.09,1.07
728,-0.29,-0.21,1.16,0.03,-0.09,1.07
729,-0.05,-0.17,1.15,0.03,-0.08,1.06
730,0.08,0.32,1.08,0.03,-0.08,1.06
731,-0.17,0.38,1.22,0.03,-0.08,1.05
732,-0.35,0.73,0.75,0.03,-0.08,1.06
733,-0.24,0.49,0.60,0.03,-0.09,1.07
734,-0.05,0.60,0.78,0.02,-0.09,1.07
735,0.34,0.78,1.34,0.02,-0.09,1.07
736,0.21,0.89,0.72,0.02,-0.09,1.06
737,0.63,0.95,0.96,0.02,-0.08,1.06
738,0.34,1.04,1.37,0.02,-0.09,1.06
739,0.12,1.04,1.05,0.02,-0.08,1.07
740,0.32,0.89,0.93,0.02,-0.09,1.07
741,0.38,0.64,1.28,0.02,-0.09,1.06
742,0.05,0.63,1.30,0.01,-0.08,1.06
743,0.35,0.50,0.58,0.01,-0.09,1.07
744,0.31,0.52,0.90,0.01,-0.09,1.07
745,0.34,0.46,1.34,0.01,-0.09,1.06
746,0.37,0.69,0.78,0.01,-0.09,1.07
747,0.38,0.61,0.69,0.02,-0.09,1.07
748,0.31,0.34,1.19,0.02,-0.09,1.07
749,0.12,0.24,0.89,0.02,-0.08,1.06
750,0.00,0.47,0.67,0.01,-0.08,1.07
751,0.06,0.17,0.99,0.02,-0.08,1.06
752,0.08,-0.14,1.08,0.02,-0.08,1.06
753,0.02,0.21,0.69,0.02,-0.08,1.06
754,-0.14,0.23,0.93,0.03,-0.08,1.07
755,-0.40,0.09,1.04,0.02,-0.09,1.07
756,-0.41,0.26,0.79,0.02,-0.08,1.06
757,-0.05,0.09,1.16,0.02,-0.08,1.06
758,0.29,0.06,1.97,0.02,-0.09,1.07
759,0.06,0.14,1.60,0.02,-0.09,1.07
760,0.12,0.14,1.13,0.02,-0.09,1.07
761,-0.02,0.05,1.13,0.03,-0.09,1.07
762,-0.41,0.05,1.08,0.02,-0.08,1.06
763,0.08,0.34,0.75,0.02,-0.08,1.06
764,0.56,0.37,1.01,0.03,-0.09,1.07
765,0.61,0.29,1.54,0.02,-0.09,1.06
766,0.55,0.38,1.19,0.01,-0.09,1.07
767,0.49,0.34,0.78,0.02,-0.08,1.06
768,0.12,0.50,0.98,0.01,-0.09,1.07
769,0.05,0.03,1.36,0.02,-0.08,1.06
770,0.14,0.26,1.02,0.02,-0.08,1.06
771,0.18,-0.03,0.95,0.02,-0.09,1.07
772,-0.21,-0.14,1.21,0.02,-0.08,1.07
773,-0.23,0.06,0.66,0.02,-0.08,1.06
774,-0.14,0.26,0.52,0.03,-0.09,1.07
775,-0.29,0.21,1.28,0.02,-0.09,1.05
776,-0.08,0.40,1.53,0.02,-0.08,1.06
777,0.55,0.50,1.15,0.02,-0.09,1.07
778,0.50,0.29,1.05,0.02,-0.09,1.06
779,0.15,0.29,1.11,0.03,-0.08,1.07
780,-0.03,0.47,0.35,0.02,-0.09,1.07
781,0.03,0.49,0.84,0.02,-0.09,1.06
782,-0.23,0.61,1.08,0.02,-0.09,1.06
783,-0.12,0.73,0.98,0.02,-0.08,1.06
784,0.05,0.95,0.60,0.01,-0.08,1.06
785,0.03,0.81,1.19,0.02,-0.09,1.06
786,-0.27,0.56,0.93,0.01,-0.08,1.06
787,-0.09,0.50,0.44,0.01,-0.08,1.06
788,-0.06,0.23,0.64,0.01,-0.09,1.07
789,-0.41,0.12,0.95,0.01,-0.08,1.07
790,-0.14,0.11,0.90,0.02,-0.09,1.06
791,0.14,-0.02,1.31,0.02,-0.09,1.07
792,-0.02,0.05,1.19,0.02,-0.08,1.06
793,0.00,-0.03,1.18,0.02,-0.08,1.07
794,0.35,0.21,1.45,0.02,-0.10,1.07
795,0.40,0.08,1.65,0.02,-0.09,1.06
796,0.11,0.02,1.08,0.02,-0.09,1.06
797,-0.11,0.31,0.69,0.02,-0.08,1.06
798,0.40,0.18,1.36,0.02,-0.09,1.07
799,0.35,0.23,1.36,0.02,-0.08,1.06
800,0.21,0.24,0.69,0.03,-0.09,1.07
801,0.17,0.37,0.75,0.03,-0.09,1.06
802,0.03,0.34,1.50,0.02,-0.08,1.07
803,0.32,0.81,1.40,0.02,-0.08,1.06
804,0.55,0.67,0.96,0.02,-0.08,1.07
805,0.53,0.63,1.15,0.02,-0.08,1.06
806,0.37,0.41,1.45,0.02,-0.09,1.06
807,0.38,0.53,0.95,0.02,-0.09,1.07
808,0.32,0.44,0.81,0.01,-0.09,1.08
809,-0.08,0.31,1.40,0.02,-0.08,1.07
810,0.08,-0.03,0.92,0.02,-0.08,1.07
811,0.78,0.35,1.05,0.02,-0.09,1.07
812,0.66,0.23,1.63,0.02,-0.08,1.07
813,0.38,0.17,1.15,0.02,-0.09,1.07
814,0.46,0.35,0.92,0.02,-0.08,1.07
815,0.50,0.38,1.48,0.03,-0.08,1.06
816,0.50,0.15,1.73,0.02,-0.09,1.06
817,0.32,0.26,1.36,0.02,-0.09,1.07
818,0.53,0.20,1.45,0.02,-0.09,1.06
819,0.17,0.15,1.53,0.02,-0.09,1.07
820,-0.23,0.64,1.16,0.03,-0.08,1.06
821,0.41,0.81,0.87,0.01,-0.09,1.07
822,0.55,0.81,1.05,0.02,-0.09,1.07
823,0.09,0.21,1.39,0.01,-0.08,1.06
824,0.21,0.63,0.87,0.02,-0.08,1.06
825,0.67,0.17,0.96,0.01,-0.09,1.07
826,0.31,0.34,1.24,0.01,-0.09,1.07
827,0.31,0.43,1.04,0.02,-0.08,1.07
828,0.99,0.49,1.08,0.03,-0.09,1.07
829,0.27,0.14,1.19,0.02,-0.09,1.06
830,-0.06,0.29,1.36,0.02,-0.08,1.07
831,0.34,0.31,1.02,0.02,-0.08,1.07
832,0.44,-0.03,1.02,0.02,-0.09,1.07
833,0.09,0.11,0.95,0.02,-0.08,1.07
834,-0.20,0.11,0.61,0.02,-0.09,1.06
835,-0.14,-0.05,0.61,0.02,-0.09,1.07
836,-0.32,0.23,0.85,0.03,-0.09,1.06
837,-0.40,0.56,0.75,0.03,-0.08,1.06
838,0.31,0.70,1.10,0.03,-0.09,1.06
839,0.58,0.78,1.48,0.02,-0.09,1.07
840,0.24,0.64,1.24,0.02,-0.09,1.06
841,0.27,0.49,0.58,0.02,-0.08,1.07
842,-0.03,0.67,0.87,0.01,-0.09,1.07
843,0.08,0.53,1.40,0.02,-0.08,1.07
844,0.11,0.31,0.73,0.02,-0.08,1.06
845,0.17,0.67,0.70,0.01,-0.09,1.06
846,-0.17,0.24,0.82,0.02,-0.09,1.07
847,-0.46,0.34,0.64,0.02,-0.08,1.06
848,-0.31,0.44,0.56,0.02,-0.08,1.06
849,-0.06,0.41,1.16,0.01,-0.09,1.07
850,-0.27,-0.05,0.63,0.01,-0.08,1.06
851,-0.55,-0.12,0.32,0.02,-0.08,1.07
852,-0.41,-0.17,0.52,0.02,-0.09,1.07
853,-0.41,0.17,1.10,0.03,-0.08,1.06
854,-0.15,0.38,0.96,0.02,-0.09,1.06
855,0.46,0.55,0.92,0.03,-0.09,1.07
856,0.44,0.66,1.51,0.02,-0.09,1.06
857,0.15,0.32,1.10,0.02,-0.09,1.06
858,0.03,0.31,0.40,0.02,-0.09,1.07
859,-0.05,0.17,0.63,0.01,-0.08,1.06
860,-0.52,0.29,0.73,0.02,-0.08,1.07
861,-0.09,0.24,0.61,0.02,-0.08,1.06
862,0.49,0.35,0.84,0.02,-0.09,1.07
863,0.21,0.38,1.10,0.02,-0.09,1.06
864,-0.05,0.53,1.07,0.02,-0.08,1.06
865,0.11,0.75,0.95,0.02,-0.09,1.07
866,0.35,0.72,1.80,0.02,-0.09,1.07
867,0.31,0.69,1.76,0.02,-0.08,1.07
868,0.37,0.47,0.92,0.02,-0.09,1.07
869,0.15,0.47,1.13,0.01,-0.09,1.06
870,0.00,0.05,1.28,0.02,-0.08,1.07
871,0.21,0.05,0.84,0.02,-0.08,1.06
872,0.41,0.61,1.11,0.02,-0.09,1.07
873,0.02,0.24,1.33,0.02,-0.08,1.06
874,0.05,0.26,1.07,0.02,-0.09,1.06
875,0.55,0.17,1.04,0.02,-0.09,1.06
876,0.27,0.02,1.22,0.02,-0.09,1.07
877,-0.26,0.00,1.08,0.02,-0.08,1.06
878,-0.03,0.21,0.89,0.01,-0.08,1.06
879,0.20,0.11,1.15,0.02,-0.08,1.07
880,-0.06,0.03,1.42,0.02,-0.08,1.08
881,0.06,0.05,1.18,0.02,-0.08,1.07
882,-0.08,-0.24,1.15,0.02,-0.09,1.06
883,0.11,-0.37,1.54,0.02,-0.09,1.07
884,-0.21,0.18,1.22,0.03,-0.09,1.06
885,-0.23,0.23,0.84,0.03,-0.09,1.06
886,-0.02,0.34,1.45,0.02,-0.08,1.06
887,-0.12,0.53,1.45,0.03,-0.08,1.06
888,0.24,0.66,0.70,0.03,-0.09,1.06
889,0.32,0.76,0.92,0.02,-0.09,1.06
890,-0.08,0.60,0.87,0.03,-0.08,1.06
891,-0.12,0.63,0.52,0.03,-0.08,1.06
892,0.32,0.85,0.69,0.03,-0.08,1.06
893,0.35,0.90,1.15,0.02,-0.09,1.06
894,0.17,0.89,0.81,0.02,-0.08,1.06
895,0.40,1.08,0.79,0.01,-0.08,1.07
896,0.26,0.70,0.98,0.01,-0.08,1.07
897,-0.15,0.38,1.30,0.01,-0.08,1.06
898,0.26,0.43,1.25,0.01,-0.08,1.07
899,0.35,0.12,1.22,0.01,-0.09,1.07
900,-0.05,0.34,1.42,0.02,-0.09,1.06
901,-0.21,0.21,1.21,0.02,-0.08,1.06
902,0.03,0.21,0.69,0.02,-0.09,1.07
903,-0.18,0.02,1.07,0.02,-0.08,1.06
904,-0.46,-0.06,1.05,0.03,-0.08,1.06
905,0.03,0.37,0.92,0.02,-0.09,1.07
906,-0.08,0.31,0.82,0.02,-0.08,1.06
907,-0.49,0.09,0.75,0.02,-0.09,1.07
908,-0.49,0.32,0.41,0.02,-0.09,1.06
909,-0.35,0.17,0.61,0.02,-0.08,1.06
910,-0.03,0.21,0.92,0.02,-0.08,1.07
911,-0.17,0.55,0.75,0.03,-0.09,1.06
912,0.32,0.82,0.87,0.02,-0.08,1.06
913,0.37,0.46,1.18,0.02,-0.08,1.07
914,0.14,0.67,1.36,0.02,-0.08,1.06
915,0.20,0.47,0.90,0.02,-0.08,1.07
916,0.27,0.63,1.13,0.02,-0.08,1.07
917,0.08,0.56,1.18,0.02,-0.08,1.07
918,0.00,0.52,0.81,0.02,-0.09,1.06
919,0.12,0.35,0.96,0.02,-0.09,1.07
920,-0.12,-0.05,1.10,0.01,-0.08,1.07
921,-0.21,0.05,0.55,0.02,-0.09,1.06
922,-0.09,-0.06,0.29,0.02,-0.09,1.06
923,0.05,0.08,0.79,0.02,-0.09,1.07
924,-0.11,0.00,0.79,0.02,-0.09,1.06
925,-0.32,0.23,0.58,0.02,-0.09,1.06
926,0.43,0.46,0.96,0.03,-0.09,1.07
927,0.12,0.27,1.24,0.02,-0.09,1.07
928,-0.06,0.49,0.60,0.02,-0.09,1.07
929,-0.05,0.64,0.38,0.02,-0.10,1.08
930,-0.14,0.78,0.79,0.02,-0.08,1.07
931,-0.06,0.72,0.76,0.02,-0.08,1.07
932,0.17,0.89,0.79,0.01,-0.08,1.06
933,0.69,0.52,1.10,0.01,-0.08,1.07
934,0.37,0.44,1.08,0.01,-0.08,1.06
935,0.23,0.67,0.73,0.01,-0.09,1.06
936,0.27,0.38,0.84,0.02,-0.09,1.07
937,-0.24,0.17,1.05,0.02,-0.08,1.06
938,-0.15,0.35,0.58,0.02,-0.09,1.07
939,0.27,0.26,0.92,0.01,-0.09,1.07
940,0.12,0.06,1.28,0.01,-0.08,1.08
941,-0.11,-0.06,1.05,0.02,-0.08,1.07
942,-0.06,-0.18,0.69,0.02,-0.09,1.07
943,0.09,-0.24,0.84,0.01,-0.09,1.06
944,-0.61,-0.03,0.32,0.03,-0.09,1.06
945,-0.79,-0.03,-0.17,0.02,-0.08,1.06
946,-0.18,0.23,0.15,0.03,-0.09,1.05
947,-0.75,0.29,0.60,0.02,-0.09,1.06
948,-0.73,0.63,0.20,0.02,-0.09,1.06
949,-0.29,0.38,0.08,0.03,-0.09,1.07
950,-0.47,0.46,0.21,0.01,-0.09,1.07
951,-0.63,0.05,-0.27,0.02,-0.08,1.07
952,-0.15,0.20,0.08,0.02,-0.09,1.07
953,0.21,0.44,0.98,0.03,-0.09,1.06
954,0.24,0.35,1.04,0.02,-0.08,1.07
955,0.31,0.69,0.82,0.02,-0.09,1.07
956,0.41,0.50,0.84,0.01,-0.09,1.07
957,0.35,0.32,1.07,0.02,-0.08,1.07
958,0.03,0.11,0.53,0.02,-0.09,1.07
959,0.09,-0.38,0.05,0.01,-0.09,1.07
960,-0.29,-0.08,0.95,0.02,-0.08,1.06
961,-0.53,0.14,0.20,0.03,-0.09,1.05
962,-0.12,0.49,0.73,0.03,-0.08,1.06
963,0.53,0.69,1.28,0.02,-0.09,1.06
964,0.52,0.98,0.79,0.02,-0.09,1.07
965,0.11,0.90,0.40,0.01,-0.09,1.07
966,0.14,0.50,0.38,0.02,-0.09,1.06
967,-0.08,0.93,0.96,0.02,-0.09,1.07
968,-0.02,0.76,0.50,0.02,-0.08,1.07
969,0.63,0.75,0.93,0.01,-0.09,1.08
970,0.15,0.50,1.22,0.02,-0.08,1.07
971,-0.09,0.58,1.05,0.01,-0.08,1.06
972,0.02,0.37,0.90,0.01,-0.08,1.07
973,-0.20,-0.02,1.30,0.01,-0.09,1.06
974,-0.17,-0.12,1.62,0.01,-0.08,1.07
975,-0.02,-0.52,1.27,0.02,-0.09,1.07
976,0.29,-0.69,1.11,0.02,-0.09,1.07
977,-0.84,-0.76,1.02,0.02,-0.08,1.06
978,-0.56,-0.67,0.31,0.02,-0.09,1.06
979,-0.26,-0.72,0.47,0.03,-0.09,1.06
980,-0.41,-0.31,0.78,0.03,-0.09,1.05
981,-0.58,-0.11,0.50,0.03,-0.09,1.07
982,0.00,-0.02,0.27,0.04,-0.09,1.07
