,gyro_x,gyro_y,gyro_z,acce_x,acce_y,acce_z
0,0.11,-1.07,1.15,0.02,-0.12,1.05
1,-0.32,-1.11,0.50,0.03,-0.13,1.07
2,-0.24,-1.30,0.75,0.03,-0.12,1.07
3,-0.52,-1.05,0.67,0.03,-0.13,1.06
4,-0.60,-1.25,0.27,0.03,-0.12,1.07
5,-0.63,-0.38,0.18,0.03,-0.13,1.06
6,-0.73,-1.62,0.23,0.04,-0.13,1.06
7,-0.26,-0.69,0.11,0.03,-0.13,1.04
8,0.75,-0.02,0.27,0.04,-0.13,1.06
9,1.50,-0.49,0.47,0.04,-0.14,1.06
10,0.46,-0.21,0.17,0.03,-0.13,1.06
11,0.84,0.02,-0.09,0.02,-0.13,1.06
12,1.25,0.63,0.14,0.03,-0.12,1.07
13,1.37,-0.31,0.79,0.03,-0.12,1.06
14,0.99,0.61,0.06,0.02,-0.12,1.07
15,0.99,0.75,-0.52,0.02,-0.13,1.08
16,0.76,-0.14,-0.02,0.01,-0.12,1.07
17,0.21,-0.84,0.41,0.02,-0.11,1.06
18,0.50,-0.35,-0.27,0.01,-0.12,1.07
19,0.40,-0.20,-0.50,0.03,-0.12,1.07
20,0.05,-0.37,-0.64,0.03,-0.12,1.06
21,0.08,-0.50,-0.76,0.03,-0.13,1.07
22,0.47,-0.31,-0.66,0.01,-0.13,1.07
23,0.50,-0.38,-0.52,0.03,-0.12,1.07
24,0.24,-0.37,-1.07,0.03,-0.12,1.06
25,0.21,-0.02,-1.66,0.04,-0.12,1.06
26,0.12,0.40,-1.36,0.03,-0.12,1.05
27,0.09,0.87,-0.82,0.05,-0.12,1.04
28,0.84,1.28,-0.99,0.04,-0.13,1.06
29,0.69,1.69,-1.30,0.04,-0.13,1.05
30,0.34,2.05,-1.22,0.04,-0.12,1.05
31,1.11,2.31,-0.46,0.04,-0.12,1.05
32,1.24,2.79,-0.76,0.03,-0.12,1.05
33,1.48,2.69,0.15,0.02,-0.13,1.06
34,1.63,2.49,0.11,0.02,-0.12,1.06
35,1.30,2.15,-0.52,0.01,-0.12,1.07
36,0.95,1.51,-0.50,-0.00,-0.12,1.07
37,0.69,1.16,0.02,-0.00,-0.13,1.07
38,0.63,0.46,-0.03,-0.00,-0.12,1.07
39,0.49,0.90,0.03,-0.01,-0.12,1.06
40,0.34,0.61,1.01,0.00,-0.12,1.05
41,0.37,0.26,1.34,-0.00,-0.12,1.06
42,0.63,0.00,0.92,-0.00,-0.13,1.07
43,0.08,-0.35,1.02,-0.01,-0.12,1.07
44,-0.66,-0.98,0.60,0.01,-0.11,1.07
45,-0.99,-1.01,0.24,0.00,-0.12,1.07
46,-0.41,-1.37,0.69,0.01,-0.11,1.06
47,-0.73,-1.36,1.66,0.01,-0.10,1.06
48,-0.47,-1.34,1.07,0.02,-0.11,1.06
49,-0.18,-1.51,1.08,0.02,-0.12,1.06
50,-0.18,-1.92,1.89,0.03,-0.12,1.06
51,-0.32,-1.63,1.33,0.03,-0.12,1.07
52,-0.27,-1.11,0.61,0.03,-0.13,1.06
53,-0.44,-1.28,1.15,0.04,-0.13,1.05
54,-0.73,-1.11,1.31,0.05,-0.12,1.05
55,0.11,-0.03,1.24,0.04,-0.13,1.06
56,0.35,0.38,1.48,0.05,-0.13,1.06
57,0.15,0.72,1.39,0.04,-0.12,1.05
58,-0.20,1.04,0.61,0.04,-0.12,1.06
59,-0.29,1.33,0.41,0.03,-0.14,1.05
60,-0.23,1.69,0.99,0.03,-0.12,1.05
61,-0.15,1.65,1.11,0.03,-0.12,1.06
62,0.20,1.63,0.76,0.03,-0.12,1.06
63,0.03,1.82,0.70,0.02,-0.12,1.06
64,-0.35,1.51,0.79,0.02,-0.11,1.07
65,-0.75,1.79,0.37,0.02,-0.11,1.06
66,-0.08,1.74,0.82,0.02,-0.12,1.06
67,0.11,1.59,1.69,0.02,-0.11,1.06
68,0.31,1.74,1.94,0.01,-0.12,1.07
69,0.47,1.39,1.31,0.01,-0.12,1.07
70,-0.02,1.21,1.51,0.01,-0.12,1.07
71,-0.52,0.73,1.08,0.01,-0.12,1.06
72,-0.23,0.52,0.82,0.00,-0.12,1.07
73,0.12,0.66,1.53,0.01,-0.12,1.05
74,0.15,0.61,1.71,0.02,-0.12,1.05
75,-0.11,0.79,1.68,0.01,-0.12,1.06
76,0.21,0.66,1.40,0.01,-0.13,1.07
77,-0.46,0.11,1.44,0.01,-0.13,1.07
78,-0.96,0.05,0.49,0.01,-0.12,1.06
79,-1.05,-0.03,0.11,0.02,-0.12,1.06
80,-0.67,-0.12,1.07,0.02,-0.13,1.06
81,-0.55,0.24,1.51,0.02,-0.12,1.06
82,-0.21,0.12,1.22,0.02,-0.13,1.06
83,-0.27,0.06,1.04,0.02,-0.13,1.07
84,-0.34,0.32,1.62,0.03,-0.13,1.06
85,-0.20,0.37,1.53,0.03,-0.13,1.06
86,0.24,0.64,1.54,0.03,-0.13,1.06
87,0.31,0.58,1.80,0.03,-0.13,1.06
88,0.15,0.98,1.69,0.02,-0.12,1.05
89,0.29,1.31,1.33,0.03,-0.13,1.06
90,0.63,1.01,1.88,0.02,-0.13,1.06
91,0.61,1.05,2.17,0.02,-0.12,1.05
92,0.27,0.99,0.95,0.01,-0.12,1.06
93,0.43,0.75,0.84,0.02,-0.13,1.05
94,0.12,1.07,1.34,0.01,-0.12,1.05
95,0.32,0.82,1.40,0.02,-0.11,1.06
96,0.50,1.02,1.16,0.02,-0.11,1.06
97,0.35,1.04,1.48,0.01,-0.12,1.07
98,-0.26,0.93,1.25,0.02,-0.11,1.06
99,-0.18,0.53,1.04,0.02,-0.12,1.06
100,-0.06,0.60,1.36,0.02,-0.12,1.06
101,0.15,0.58,2.06,0.02,-0.11,1.06
102,0.20,0.93,1.98,0.02,-0.12,1.06
103,0.60,0.63,1.86,0.02,-0.12,1.06
104,-0.03,0.15,2.24,0.01,-0.12,1.06
105,-0.21,0.40,1.85,0.02,-0.12,1.06
106,-0.03,0.66,1.56,0.02,-0.13,1.06
107,0.38,0.72,2.05,0.02,-0.12,1.06
108,0.14,0.21,2.23,0.02,-0.12,1.05
109,-0.32,0.67,1.40,0.02,-0.12,1.06
110,-0.17,0.55,1.27,0.01,-0.12,1.07
111,-0.26,0.17,1.79,0.03,-0.13,1.07
112,-0.05,-0.08,1.63,0.02,-0.13,1.07
113,0.15,0.06,1.40,0.03,-0.13,1.06
114,0.14,-0.24,1.31,0.02,-0.13,1.06
115,-0.31,0.24,1.30,0.03,-0.12,1.06
116,-0.35,0.27,0.81,0.03,-0.12,1.05
117,0.11,0.79,1.22,0.03,-0.12,1.06
118,0.37,0.70,1.63,0.02,-0.12,1.06
119,0.40,0.85,1.42,0.02,-0.12,1.06
120,0.20,0.79,0.89,0.02,-0.12,1.05
121,0.11,0.61,1.50,0.02,-0.12,1.06
122,-0.24,0.61,1.48,0.02,-0.12,1.06
123,0.03,0.56,1.24,0.01,-0.12,1.07
124,0.00,0.31,1.31,0.02,-0.12,1.06
125,-0.08,0.50,2.00,0.02,-0.12,1.06
126,-0.17,0.52,1.62,0.02,-0.12,1.06
127,0.11,0.63,1.74,0.02,-0.12,1.06
128,0.03,0.70,2.38,0.03,-0.12,1.06
129,0.26,0.98,1.98,0.01,-0.12,1.06
130,-0.15,0.69,1.10,0.01,-0.12,1.07
131,-0.20,0.44,1.44,0.01,-0.13,1.07
132,0.00,0.17,2.00,0.01,-0.12,1.06
133,0.14,0.34,1.28,0.01,-0.12,1.07
134,0.11,0.52,1.22,0.02,-0.12,1.06
135,-0.14,0.44,1.65,0.02,-0.12,1.05
136,-0.29,0.73,1.25,0.02,-0.12,1.05
137,-0.14,0.95,1.13,0.02,-0.13,1.06
138,-0.12,0.72,1.34,0.01,-0.13,1.07
139,0.08,0.64,1.31,0.02,-0.13,1.07
140,-0.34,0.27,0.79,0.01,-0.13,1.06
141,-0.31,-0.02,0.76,0.01,-0.13,1.06
142,-0.32,-0.14,1.05,0.01,-0.12,1.06
143,-0.20,0.17,1.07,0.02,-0.12,1.06
144,0.32,0.46,1.25,0.03,-0.12,1.06
145,0.11,0.26,1.37,0.02,-0.13,1.06
146,-0.56,0.32,1.01,0.02,-0.12,1.05
147,-0.43,0.46,0.89,0.02,-0.13,1.06
148,-0.17,0.31,1.31,0.02,-0.13,1.07
149,-0.35,0.47,1.16,0.02,-0.12,1.06
150,-0.44,0.78,0.69,0.02,-0.12,1.07
151,-0.32,0.67,0.76,0.03,-0.13,1.06
152,-0.53,0.73,1.45,0.03,-0.13,1.05
153,0.18,0.90,1.54,0.03,-0.12,1.06
154,0.58,1.13,1.28,0.02,-0.12,1.06
155,0.64,1.25,1.82,0.01,-0.12,1.06
156,0.11,1.07,1.51,0.02,-0.12,1.07
157,-0.05,0.76,1.19,0.02,-0.12,1.06
158,0.26,0.66,1.31,0.01,-0.12,1.07
159,0.18,0.73,1.89,0.02,-0.13,1.06
160,0.40,0.67,1.18,0.01,-0.12,1.06
161,0.31,0.09,0.79,0.00,-0.13,1.07
162,0.00,-0.11,1.54,0.01,-0.12,1.06
163,0.21,-0.11,1.56,0.01,-0.12,1.06
164,0.47,0.00,1.48,0.02,-0.13,1.06
165,0.44,0.09,1.42,0.02,-0.12,1.05
166,-0.34,0.31,1.33,0.02,-0.12,1.06
167,-0.46,0.18,1.30,0.02,-0.13,1.07
168,0.12,0.26,1.25,0.02,-0.14,1.06
169,0.05,0.46,1.08,0.02,-0.13,1.07
170,-0.44,0.40,0.43,0.02,-0.12,1.06
171,-0.21,0.40,0.21,0.02,-0.13,1.07
172,-0.29,0.43,0.76,0.03,-0.12,1.05
173,-0.38,0.38,0.87,0.03,-0.12,1.06
174,-0.18,1.08,0.56,0.02,-0.12,1.06
175,0.44,0.89,1.16,0.02,-0.12,1.06
176,0.40,1.15,1.59,0.02,-0.13,1.06
177,0.67,0.98,1.39,0.02,-0.12,1.07
178,0.52,0.90,1.24,0.01,-0.12,1.06
179,0.52,0.85,1.42,0.01,-0.12,1.07
180,0.12,0.64,1.39,0.01,-0.12,1.07
181,0.61,0.89,1.19,0.01,-0.13,1.06
182,0.21,0.56,1.07,0.01,-0.13,1.06
183,-0.20,0.34,1.02,0.02,-0.12,1.07
184,-0.60,0.47,0.41,0.01,-0.12,1.06
185,-0.56,0.08,0.52,0.02,-0.12,1.06
186,-0.46,0.21,0.93,0.01,-0.13,1.06
187,-0.15,0.46,1.65,0.02,-0.12,1.05
188,0.75,0.66,2.06,0.02,-0.12,1.06
189,0.85,0.32,2.11,0.02,-0.13,1.06
190,0.08,0.18,1.59,0.02,-0.12,1.07
191,-0.29,0.26,1.02,0.02,-0.12,1.07
192,-0.23,0.47,1.42,0.01,-0.12,1.06
193,0.03,0.47,1.66,0.02,-0.12,1.05
194,0.14,0.38,1.51,0.01,-0.12,1.06
195,0.26,0.37,1.16,0.02,-0.13,1.06
196,0.03,0.37,1.56,0.01,-0.13,1.06
197,-0.46,0.50,1.01,0.02,-0.12,1.05
198,-0.05,0.43,1.21,0.02,-0.12,1.06
199,0.31,0.31,1.48,0.02,-0.13,1.06
200,0.32,0.56,1.47,0.02,-0.12,1.06
201,0.38,0.85,1.37,0.03,-0.13,1.06
202,0.60,0.85,1.21,0.02,-0.13,1.06
203,0.46,0.84,1.21,0.02,-0.13,1.06
204,-0.03,0.76,0.89,0.01,-0.13,1.07
205,0.37,0.60,0.69,0.01,-0.12,1.06
206,0.31,0.46,1.19,0.01,-0.13,1.06
207,0.31,0.41,1.21,0.01,-0.12,1.06
208,0.52,0.72,1.18,0.02,-0.12,1.06
209,0.55,1.01,1.19,0.01,-0.13,1.06
210,0.73,0.84,1.54,0.02,-0.12,1.06
211,0.73,0.73,1.71,0.01,-0.12,1.07
212,0.38,0.76,1.28,0.01,-0.12,1.06
213,0.49,0.18,1.80,0.01,-0.12,1.07
214,0.66,-0.02,2.15,0.02,-0.12,1.06
215,0.61,0.58,1.44,0.02,-0.12,1.07
216,0.50,0.17,1.31,0.03,-0.12,1.06
217,-0.17,0.32,1.53,0.02,-0.12,1.06
218,0.12,0.34,1.21,0.02,-0.13,1.05
219,0.38,0.29,1.05,0.02,-0.13,1.06
220,0.23,0.44,1.34,0.01,-0.13,1.06
221,0.08,0.75,1.30,0.01,-0.12,1.06
222,0.21,0.64,1.15,0.02,-0.12,1.06
223,0.18,0.49,1.47,0.01,-0.12,1.06
224,-0.17,0.02,1.07,0.01,-0.12,1.07
225,0.14,0.09,0.85,0.01,-0.12,1.07
226,0.32,-0.11,1.28,0.01,-0.13,1.07
227,0.23,-0.14,1.56,0.02,-0.13,1.06
228,0.18,-0.03,1.37,0.02,-0.12,1.06
229,-0.06,-0.14,0.99,0.02,-0.13,1.06
230,-0.17,0.11,1.19,0.02,-0.13,1.05
231,-0.26,0.18,1.28,0.02,-0.13,1.06
232,0.17,0.34,1.27,0.02,-0.12,1.06
233,0.32,0.69,1.34,0.02,-0.12,1.06
234,0.02,0.44,1.13,0.02,-0.12,1.05
235,-0.08,0.66,0.92,0.02,-0.12,1.06
236,0.27,0.81,1.08,0.02,-0.13,1.06
237,0.47,0.89,1.56,0.01,-0.12,1.05
238,0.35,0.81,1.40,0.02,-0.12,1.06
239,0.50,1.07,1.44,0.01,-0.12,1.06
240,0.93,0.90,1.47,0.01,-0.13,1.06
241,0.37,0.73,1.11,0.01,-0.12,1.06
242,-0.03,0.55,0.64,0.01,-0.12,1.06
243,0.18,0.44,0.95,0.00,-0.13,1.06
244,0.26,0.29,1.15,0.01,-0.12,1.07
245,0.05,0.20,0.78,0.01,-0.13,1.06
246,0.11,0.11,0.72,0.01,-0.12,1.07
247,0.18,0.26,1.24,0.01,-0.12,1.06
248,-0.15,0.26,1.04,0.03,-0.12,1.05
249,0.09,0.47,0.96,0.02,-0.13,1.06
250,0.27,0.47,1.16,0.01,-0.13,1.07
251,-0.15,0.02,1.22,0.02,-0.13,1.06
252,-0.02,0.29,1.27,0.02,-0.12,1.06
253,0.03,0.00,1.02,0.03,-0.13,1.07
254,0.06,0.35,1.22,0.02,-0.12,1.05
255,0.26,0.21,1.69,0.02,-0.13,1.05
256,0.55,0.64,1.27,0.02,-0.13,1.06
257,0.67,0.79,1.47,0.02,-0.12,1.06
258,0.31,0.78,1.44,0.02,-0.12,1.06
259,0.09,0.78,0.92,0.02,-0.12,1.05
260,-0.02,0.49,0.99,0.01,-0.13,1.06
261,0.18,0.63,1.33,0.01,-0.12,1.06
262,0.17,0.55,1.56,0.02,-0.12,1.06
263,0.17,0.24,1.07,0.01,-0.12,1.06
264,-0.03,0.35,1.16,0.01,-0.12,1.07
265,-0.41,0.12,1.30,0.01,-0.12,1.07
266,-0.09,0.11,0.76,0.02,-0.12,1.06
267,0.24,0.14,0.98,0.02,-0.13,1.05
268,0.00,0.05,1.86,0.01,-0.12,1.06
269,0.38,0.23,1.45,0.02,-0.12,1.06
270,0.34,0.44,1.08,0.02,-0.13,1.06
271,-0.06,0.34,1.36,0.02,-0.13,1.06
272,-0.15,0.18,1.40,0.02,-0.12,1.06
273,-0.35,0.49,0.96,0.02,-0.13,1.07
274,-0.08,0.14,0.84,0.02,-0.13,1.07
275,-0.03,0.12,1.16,0.02,-0.12,1.06
276,0.06,0.60,1.21,0.02,-0.12,1.05
277,0.29,0.81,0.99,0.01,-0.12,1.06
278,0.53,0.61,1.45,0.02,-0.13,1.06
279,0.70,0.60,1.74,0.01,-0.12,1.06
280,0.76,0.79,1.28,0.02,-0.13,1.06
281,0.61,0.52,1.34,0.01,-0.12,1.06
282,0.31,0.55,1.34,0.01,-0.12,1.06
283,0.26,0.32,1.42,0.02,-0.12,1.06
284,0.29,0.44,1.48,0.01,-0.12,1.06
285,0.21,0.64,1.69,0.02,-0.12,1.06
286,0.23,0.40,1.60,0.01,-0.12,1.06
287,0.09,0.46,0.75,0.01,-0.13,1.06
288,0.03,-0.12,0.56,0.01,-0.13,1.07
289,-0.64,0.23,0.90,0.01,-0.13,1.06
290,-0.23,0.38,1.18,0.02,-0.12,1.05
291,0.49,0.50,1.74,0.02,-0.13,1.06
292,0.75,0.76,2.35,0.01,-0.13,1.05
293,0.58,0.75,1.69,0.02,-0.12,1.06
294,0.24,0.60,1.02,0.02,-0.13,1.06
295,0.17,0.53,1.40,0.01,-0.13,1.06
296,0.18,0.41,1.42,0.01,-0.12,1.06
297,0.03,0.43,1.21,0.01,-0.12,1.06
298,0.41,0.56,1.47,0.01,-0.12,1.06
299,0.46,0.50,1.68,0.02,-0.12,1.07
300,0.21,0.50,1.07,0.01,-0.12,1.07
301,0.03,0.41,0.76,0.01,-0.13,1.06
302,-0.21,0.53,0.64,0.01,-0.12,1.06
303,-0.46,0.37,0.93,0.02,-0.12,1.06
304,0.21,0.09,1.13,0.02,-0.13,1.06
305,0.35,0.66,1.76,0.02,-0.12,1.06
306,0.24,0.40,1.95,0.01,-0.12,1.06
307,0.23,0.60,1.62,0.02,-0.11,1.06
308,0.18,0.52,1.18,0.02,-0.13,1.07
309,0.02,0.08,0.96,0.01,-0.13,1.07
310,-0.14,-0.06,1.02,0.01,-0.13,1.06
311,0.00,0.27,0.99,0.02,-0.12,1.06
312,0.00,0.26,1.44,0.02,-0.12,1.05
313,0.02,0.53,1.77,0.02,-0.12,1.06
314,0.12,0.76,1.45,0.02,-0.13,1.06
315,0.56,0.79,1.53,0.01,-0.13,1.06
316,0.27,0.61,1.31,0.02,-0.13,1.06
317,-0.24,0.18,0.99,0.01,-0.12,1.06
318,-0.08,0.08,1.02,0.01,-0.12,1.07
319,0.32,-0.37,1.11,0.01,-0.12,1.06
320,0.24,0.06,1.34,0.02,-0.12,1.06
321,0.29,0.32,0.81,0.02,-0.12,1.06
322,0.44,0.72,1.25,0.02,-0.12,1.05
323,0.24,0.46,1.18,0.01,-0.12,1.07
324,0.14,0.26,1.16,0.01,-0.12,1.06
325,0.32,0.02,1.05,0.00,-0.12,1.07
326,0.53,0.02,1.56,0.01,-0.13,1.07
327,-0.08,-0.17,1.24,0.01,-0.12,1.07
328,-0.17,-0.55,0.81,0.01,-0.12,1.07
329,-0.31,-0.64,1.36,0.02,-0.12,1.07
330,-0.49,-0.49,1.51,0.02,-0.12,1.06
331,-0.26,-0.18,1.18,0.02,-0.12,1.06
332,-0.09,-0.09,1.02,0.02,-0.13,1.07
333,-0.35,0.02,1.08,0.03,-0.13,1.06
334,-0.15,0.08,1.22,0.03,-0.12,1.06
335,0.06,0.38,0.98,0.03,-0.13,1.05
336,0.23,0.24,0.95,0.02,-0.13,1.06
337,0.27,0.43,1.10,0.02,-0.12,1.06
338,0.34,0.67,0.53,0.02,-0.12,1.06
339,0.32,1.13,0.69,0.02,-0.12,1.05
340,0.11,0.84,1.39,0.02,-0.12,1.06
341,0.43,1.16,1.65,0.02,-0.12,1.06
342,0.60,1.37,1.40,0.01,-0.13,1.06
343,0.75,1.10,1.62,0.01,-0.13,1.07
344,0.81,0.99,1.71,0.01,-0.11,1.07
345,0.66,0.40,1.04,0.01,-0.13,1.08
346,0.37,-0.14,1.07,0.01,-0.12,1.06
347,0.32,-0.20,1.47,0.01,-0.12,1.06
348,0.23,0.20,1.02,0.02,-0.11,1.06
349,0.52,0.21,1.07,0.01,-0.12,1.06
350,0.52,0.31,1.37,0.02,-0.13,1.06
351,0.06,0.20,0.96,0.01,-0.12,1.06
352,-0.02,-0.03,0.63,0.01,-0.12,1.06
353,-0.26,-0.06,1.05,0.01,-0.12,1.06
354,-0.24,0.27,1.28,0.02,-0.13,1.06
355,-0.24,-0.05,0.79,0.02,-0.12,1.06
356,0.02,0.26,1.18,0.02,-0.12,1.07
357,0.44,0.55,1.44,0.02,-0.13,1.06
358,0.46,0.52,1.48,0.02,-0.13,1.05
359,0.82,0.52,0.96,0.02,-0.13,1.06
360,0.43,0.26,1.07,0.02,-0.13,1.06
361,0.26,0.34,1.25,0.02,-0.12,1.06
362,0.34,0.41,0.67,0.01,-0.12,1.06
363,0.56,0.44,0.76,0.01,-0.12,1.06
364,0.66,0.78,1.27,0.01,-0.12,1.06
365,0.27,0.66,0.46,0.01,-0.12,1.07
366,0.21,0.43,0.44,0.02,-0.13,1.06
367,-0.17,-0.20,0.70,0.01,-0.12,1.07
368,-0.58,0.15,0.47,0.01,-0.12,1.06
369,-0.41,0.21,0.43,0.01,-0.13,1.06
370,-0.08,-0.11,0.76,0.01,-0.13,1.06
371,-0.26,0.14,1.36,0.01,-0.12,1.06
372,0.14,0.50,1.34,0.01,-0.12,1.06
373,0.56,0.35,1.56,0.02,-0.12,1.04
374,0.49,0.27,1.97,0.02,-0.12,1.06
375,0.43,0.49,1.77,0.02,-0.13,1.06
376,0.53,0.56,1.62,0.02,-0.13,1.07
377,0.44,0.49,1.59,0.01,-0.13,1.07
378,0.34,0.43,1.40,0.02,-0.13,1.07
379,0.58,0.43,1.28,0.01,-0.12,1.06
380,0.56,0.03,1.31,0.02,-0.13,1.06
381,0.41,0.35,1.45,0.01,-0.12,1.06
382,-0.02,0.69,0.95,0.01,-0.12,1.06
383,0.24,0.90,0.81,0.02,-0.12,1.07
384,0.23,0.52,1.19,0.02,-0.13,1.06
385,-0.05,0.38,0.85,0.02,-0.13,1.06
386,0.15,0.56,0.60,0.02,-0.13,1.06
387,0.37,0.23,0.92,0.01,-0.13,1.06
388,0.11,0.37,0.75,0.02,-0.12,1.06
389,-0.03,0.52,0.63,0.01,-0.12,1.06
390,-0.03,0.38,0.44,0.01,-0.13,1.06
391,0.05,0.64,1.18,0.01,-0.13,1.06
392,0.09,0.41,0.81,0.02,-0.12,1.07
393,0.31,0.63,1.13,0.01,-0.12,1.06
394,0.61,0.53,1.45,0.01,-0.12,1.07
395,0.11,0.38,1.53,0.02,-0.12,1.06
396,0.50,0.46,1.24,0.01,-0.13,1.06
397,0.47,0.31,1.24,0.02,-0.12,1.06
398,0.12,0.46,1.47,0.01,-0.12,1.05
399,-0.26,0.63,1.36,0.01,-0.12,1.06
400,0.29,0.66,1.34,0.02,-0.12,1.06
401,0.06,0.43,1.22,0.02,-0.13,1.07
402,-0.23,0.29,1.07,0.01,-0.13,1.06
403,-0.08,0.38,0.92,0.01,-0.13,1.06
404,0.08,0.47,1.25,0.01,-0.13,1.05
405,0.61,0.24,2.08,0.02,-0.12,1.07
406,0.60,0.20,1.39,0.01,-0.12,1.07
407,0.55,0.47,1.11,0.01,-0.13,1.06
408,0.21,0.24,1.21,0.01,-0.12,1.05
409,0.26,0.20,1.05,0.01,-0.13,1.06
410,0.08,0.32,0.08,0.02,-0.12,1.07
411,-0.14,-0.05,0.21,0.01,-0.13,1.06
412,-0.46,-0.21,0.85,0.02,-0.12,1.06
413,-0.24,0.05,0.70,0.02,-0.12,1.05
414,-0.15,0.60,0.69,0.01,-0.13,1.06
415,-0.44,0.38,1.36,0.02,-0.12,1.06
416,-0.17,0.60,1.05,0.01,-0.12,1.07
417,-0.02,0.27,0.85,0.01,-0.13,1.07
418,0.11,0.72,1.25,0.01,-0.13,1.06
419,-0.03,0.37,1.16,0.01,-0.12,1.07
420,-0.05,0.18,0.75,0.01,-0.13,1.06
421,0.15,0.20,0.95,0.01,-0.12,1.06
422,-0.02,0.24,1.16,0.02,-0.12,1.05
423,0.00,0.26,1.11,0.02,-0.12,1.06
424,0.58,0.41,1.07,0.02,-0.13,1.05
425,0.37,0.72,1.05,0.01,-0.13,1.06
426,0.03,0.67,0.50,0.01,-0.12,1.06
427,-0.05,0.46,0.24,0.02,-0.12,1.06
428,0.21,0.17,0.89,0.02,-0.12,1.06
429,-0.06,0.14,0.81,0.01,-0.11,1.07
430,-0.24,0.29,0.61,0.01,-0.11,1.06
431,0.11,0.37,1.21,0.01,-0.12,1.06
432,0.08,0.17,1.77,0.01,-0.12,1.06
433,-0.14,-0.06,1.71,0.01,-0.12,1.07
434,-0.03,-0.05,1.30,0.01,-0.12,1.07
435,-0.17,-0.43,1.31,0.02,-0.13,1.06
436,-0.50,-0.58,0.93,0.02,-0.12,1.06
437,-0.50,-0.15,0.58,0.02,-0.13,1.06
438,-0.26,-0.06,0.72,0.02,-0.13,1.06
439,0.27,0.37,1.22,0.02,-0.12,1.05
440,0.47,0.64,1.13,0.02,-0.12,1.07
441,0.06,0.73,0.84,0.02,-0.13,1.07
442,0.11,0.44,1.10,0.02,-0.12,1.06
443,-0.02,0.82,0.98,0.02,-0.12,1.06
444,0.35,1.34,0.98,0.01,-0.13,1.06
445,0.56,1.47,1.37,0.01,-0.13,1.05
446,0.34,1.02,1.48,0.01,-0.12,1.06
447,0.50,0.82,1.08,0.00,-0.12,1.06
448,0.69,0.46,1.60,0.00,-0.13,1.06
449,0.75,0.40,1.76,0.01,-0.12,1.07
450,0.20,0.09,1.04,0.01,-0.12,1.07
451,-0.09,0.11,0.85,0.01,-0.12,1.06
452,-0.34,-0.11,0.85,0.01,-0.12,1.07
453,-0.35,0.11,1.07,0.02,-0.12,1.06
454,0.20,0.21,1.08,0.02,-0.13,1.07
455,0.34,0.26,1.33,0.01,-0.13,1.06
456,0.05,0.05,1.33,0.02,-0.12,1.05
457,-0.38,0.12,0.82,0.02,-0.12,1.06
458,-0.55,-0.31,0.63,0.02,-0.13,1.06
459,-0.21,-0.05,1.53,0.02,-0.13,1.05
460,0.15,0.20,1.65,0.02,-0.12,1.06
461,0.64,0.56,1.36,0.02,-0.13,1.06
462,0.52,0.55,1.28,0.02,-0.13,1.06
463,0.20,0.56,1.36,0.02,-0.12,1.06
464,0.12,0.87,0.69,0.01,-0.12,1.06
465,0.44,0.87,0.93,0.02,-0.12,1.06
466,0.31,0.64,0.95,0.01,-0.13,1.05
467,-0.05,0.63,0.67,0.01,-0.13,1.06
468,0.21,0.50,0.47,0.01,-0.12,1.06
469,0.34,0.38,0.93,0.01,-0.13,1.06
470,-0.21,0.64,0.61,0.01,-0.12,1.06
471,-0.21,0.35,0.21,0.01,-0.13,1.07
472,-0.05,0.24,0.69,0.01,-0.13,1.05
473,-0.09,0.18,1.22,0.01,-0.12,1.06
474,0.02,0.09,0.90,0.01,-0.13,1.07
475,0.21,-0.08,0.98,0.02,-0.13,1.06
476,0.06,-0.15,1.04,0.01,-0.12,1.06
477,-0.21,0.09,1.05,0.02,-0.12,1.06
478,-0.14,0.47,0.79,0.01,-0.13,1.06
479,0.29,0.63,1.27,0.02,-0.12,1.06
480,0.34,0.61,1.50,0.02,-0.12,1.05
481,0.27,0.81,0.92,0.01,-0.13,1.05
482,0.08,0.96,1.19,0.01,-0.13,1.06
483,0.35,0.61,1.76,0.02,-0.13,1.05
484,0.46,0.64,1.53,0.01,-0.13,1.07
485,0.55,0.64,0.69,0.01,-0.13,1.06
486,0.00,0.58,1.10,0.01,-0.13,1.05
487,-0.06,0.21,1.40,0.01,-0.12,1.06
488,0.00,0.41,0.84,0.01,-0.13,1.06
489,-0.08,0.31,0.82,0.01,-0.12,1.06
490,-0.17,0.05,0.61,0.01,-0.13,1.07
491,-0.50,0.06,0.05,0.02,-0.12,1.07
492,-0.02,-0.08,0.37,0.01,-0.12,1.06
493,0.15,-0.34,1.21,0.02,-0.12,1.07
494,0.12,0.06,1.11,0.02,-0.12,1.05
495,0.00,0.20,0.56,0.02,-0.12,1.06
496,0.00,0.11,0.82,0.02,-0.13,1.06
497,-0.29,0.40,1.30,0.02,-0.12,1.06
498,-0.02,0.56,0.90,0.02,-0.12,1.06
499,0.40,0.82,1.16,0.02,-0.13,1.06
500,0.53,0.55,1.91,0.01,-0.12,1.07
501,0.47,0.46,1.42,0.02,-0.12,1.06
502,0.32,0.46,0.95,0.02,-0.13,1.06
503,0.09,0.66,1.01,0.01,-0.12,1.06
504,-0.38,0.32,0.76,0.01,-0.12,1.06
505,-0.21,0.31,0.27,0.02,-0.12,1.06
506,-0.05,0.38,0.60,0.01,-0.13,1.06
507,0.06,0.56,1.19,0.02,-0.12,1.06
508,0.06,0.40,0.82,0.01,-0.13,1.06
509,0.23,0.35,0.70,0.01,-0.13,1.06
510,0.02,0.14,0.69,0.01,-0.13,1.06
511,-0.40,0.27,0.64,0.01,-0.12,1.07
512,-0.03,0.06,0.66,0.02,-0.13,1.07
513,0.29,0.14,0.99,0.02,-0.13,1.06
514,0.11,0.20,1.33,0.02,-0.11,1.06
515,-0.05,0.49,0.85,0.01,-0.13,1.06
516,0.03,0.58,0.76,0.01,-0.13,1.06
517,0.02,0.27,0.96,0.02,-0.12,1.06
518,0.11,0.37,1.16,0.02,-0.12,1.06
519,0.44,0.34,1.08,0.01,-0.12,1.07
520,0.55,0.17,1.16,0.02,-0.12,1.06
521,0.24,0.03,1.08,0.01,-0.12,1.05
522,-0.29,0.23,0.55,0.02,-0.12,1.06
523,-0.43,0.41,0.58,0.01,-0.13,1.05
524,-0.17,0.05,1.05,0.02,-0.13,1.06
525,0.18,0.09,1.01,0.02,-0.13,1.06
526,0.43,0.69,0.93,0.02,-0.13,1.06
527,0.40,0.56,1.11,0.01,-0.13,1.07
528,0.06,0.58,1.21,0.02,-0.12,1.06
529,-0.05,0.43,0.70,0.01,-0.12,1.07
530,0.26,0.34,0.92,0.01,-0.13,1.06
531,0.20,0.14,1.04,0.01,-0.12,1.07
532,0.26,0.08,0.81,0.02,-0.12,1.07
533,0.23,0.00,0.70,0.01,-0.12,1.07
534,0.18,-0.06,1.08,0.02,-0.12,1.06
535,0.26,0.17,0.96,0.02,-0.12,1.06
536,0.34,0.47,0.67,0.02,-0.13,1.06
537,0.41,0.43,1.39,0.02,-0.12,1.06
538,0.49,0.55,1.73,0.02,-0.12,1.05
539,0.75,0.64,1.37,0.01,-0.12,1.06
540,0.73,0.53,1.42,0.01,-0.12,1.06
541,0.32,0.18,1.45,0.02,-0.12,1.07
542,0.17,0.02,1.27,0.02,-0.12,1.05
543,0.00,-0.12,1.08,0.01,-0.12,1.07
544,-0.14,-0.34,1.50,0.01,-0.13,1.07
545,-0.60,-0.31,1.30,0.02,-0.13,1.07
546,-0.14,-0.15,0.95,0.01,-0.12,1.06
547,-0.18,-0.23,1.01,0.03,-0.13,1.07
548,-0.56,-0.15,0.87,0.02,-0.13,1.06
549,-0.58,-0.06,0.66,0.02,-0.13,1.07
550,0.14,0.50,0.81,0.02,-0.12,1.05
551,0.27,0.43,1.19,0.02,-0.13,1.06
552,0.03,0.44,1.44,0.03,-0.12,1.05
553,0.24,0.46,1.10,0.02,-0.12,1.06
554,0.12,0.73,0.90,0.02,-0.13,1.06
555,-0.08,1.15,1.02,0.02,-0.12,1.05
556,0.14,0.98,0.82,0.02,-0.12,1.06
557,0.40,1.19,1.11,0.01,-0.12,1.06
558,0.40,1.18,1.05,0.01,-0.13,1.06
559,0.20,0.78,1.08,0.00,-0.13,1.07
560,0.47,0.58,1.15,0.00,-0.13,1.07
561,0.63,0.17,1.21,0.01,-0.13,1.06
562,0.12,-0.02,0.87,0.01,-0.12,1.06
563,-0.06,-0.12,0.52,0.01,-0.12,1.06
564,0.18,-0.15,1.11,0.01,-0.12,1.06
565,-0.06,0.18,1.19,0.02,-0.12,1.06
566,-0.09,0.20,0.90,0.02,-0.12,1.06
567,-0.49,0.15,0.75,0.01,-0.12,1.06
568,-0.55,0.03,0.87,0.01,-0.12,1.07
569,-0.82,-0.09,0.64,0.02,-0.12,1.07
570,-0.69,0.23,0.61,0.02,-0.13,1.07
571,-0.63,0.24,0.89,0.02,-0.13,1.06
572,-0.31,0.61,0.95,0.02,-0.12,1.05
573,0.05,0.52,0.87,0.02,-0.13,1.06
574,0.21,0.63,1.13,0.02,-0.13,1.06
575,0.26,0.43,1.54,0.02,-0.12,1.07
576,0.35,0.60,0.99,0.01,-0.13,1.07
577,0.49,0.38,0.69,0.01,-0.12,1.06
578,0.20,0.21,0.92,0.01,-0.12,1.05
579,-0.09,0.20,0.60,0.01,-0.12,1.06
580,-0.14,0.15,0.41,0.01,-0.12,1.06
581,-0.40,-0.05,0.72,0.01,-0.13,1.06
582,-0.40,-0.14,1.10,0.01,-0.12,1.07
583,-0.09,-0.05,0.64,0.02,-0.13,1.06
584,-0.23,0.12,0.44,0.02,-0.13,1.06
585,-0.69,-0.08,0.66,0.02,-0.12,1.06
586,-0.17,0.12,0.93,0.02,-0.12,1.06
587,0.55,0.15,1.31,0.02,-0.13,1.06
588,0.66,0.27,1.45,0.01,-0.13,1.06
589,0.21,0.49,0.79,0.02,-0.12,1.06
590,0.08,0.26,0.47,0.03,-0.12,1.06
591,0.55,0.61,1.01,0.02,-0.12,1.06
592,-0.02,0.81,1.16,0.02,-0.12,1.06
593,0.44,0.96,0.95,0.02,-0.13,1.06
594,0.41,0.81,1.10,0.02,-0.13,1.06
595,0.40,0.79,0.84,0.01,-0.13,1.07
596,-0.21,0.49,0.66,0.01,-0.12,1.06
597,0.37,0.66,0.73,0.01,-0.12,1.06
598,0.40,0.81,1.01,0.01,-0.12,1.06
599,0.26,0.55,1.10,0.01,-0.12,1.07
600,0.05,0.50,1.10,0.01,-0.12,1.05
601,0.50,0.38,0.70,0.01,-0.13,1.06
602,0.03,-0.02,0.81,0.01,-0.12,1.06
603,-0.15,-0.08,0.60,0.01,-0.12,1.07
604,0.24,-0.24,0.56,0.01,-0.12,1.05
605,-0.06,0.03,1.02,0.02,-0.13,1.06
606,-0.35,-0.08,0.98,0.02,-0.12,1.06
607,0.18,0.29,0.87,0.01,-0.12,1.06
608,0.15,0.15,1.21,0.01,-0.13,1.07
609,-0.17,-0.12,1.11,0.02,-0.12,1.07
610,-0.06,0.00,0.58,0.02,-0.13,1.06
611,0.23,0.21,1.05,0.02,-0.13,1.06
612,0.11,0.27,1.05,0.02,-0.13,1.06
613,-0.02,0.56,0.84,0.02,-0.12,1.06
614,0.32,0.35,0.79,0.02,-0.13,1.07
615,0.17,0.26,0.99,0.01,-0.13,1.07
616,-0.12,0.44,0.99,0.02,-0.13,1.06
617,-0.12,0.31,0.26,0.02,-0.13,1.06
618,-0.02,0.56,0.46,0.02,-0.13,1.06
619,-0.18,0.53,0.95,0.02,-0.12,1.06
620,-0.23,0.60,0.58,0.02,-0.13,1.06
621,0.34,0.29,0.82,0.01,-0.13,1.07
622,-0.09,0.09,1.02,0.01,-0.12,1.06
623,-0.38,0.50,0.61,0.01,-0.13,1.05
624,-0.08,0.46,0.35,0.02,-0.12,1.06
625,0.03,0.08,1.01,0.01,-0.12,1.06
626,0.05,-0.09,1.30,0.02,-0.12,1.06
627,0.41,0.23,1.11,0.01,-0.12,1.06
628,0.43,-0.08,0.81,0.01,-0.13,1.06
629,-0.15,0.08,1.02,0.02,-0.12,1.06
630,-0.41,0.17,0.61,0.01,-0.12,1.06
631,0.11,-0.05,1.10,0.01,-0.12,1.07
632,0.05,-0.02,1.37,0.01,-0.12,1.06
633,-0.17,-0.11,1.42,0.02,-0.12,1.06
634,-0.06,0.21,0.90,0.01,-0.12,1.07
635,0.20,-0.31,1.33,0.02,-0.13,1.06
636,0.20,-0.21,1.69,0.02,-0.12,1.05
637,0.40,0.09,1.36,0.02,-0.12,1.06
638,0.73,0.46,1.40,0.02,-0.13,1.06
639,0.40,0.75,1.77,0.02,-0.13,1.06
640,0.40,0.56,1.54,0.02,-0.12,1.06
641,0.72,0.79,1.02,0.02,-0.13,1.06
642,0.49,0.38,1.08,0.02,-0.13,1.07
643,-0.29,0.23,0.52,0.01,-0.12,1.06
644,-0.21,-0.23,0.24,0.01,-0.12,1.07
645,0.02,0.35,0.43,0.02,-0.13,1.06
646,0.02,0.41,1.04,0.01,-0.12,1.07
647,0.09,0.29,0.81,0.02,-0.12,1.06
648,0.52,0.70,0.99,0.01,-0.12,1.06
649,0.18,0.64,1.42,0.01,-0.13,1.06
650,0.05,0.31,1.21,0.02,-0.13,1.05
651,0.11,0.46,0.69,0.01,-0.12,1.07
652,0.23,0.34,1.02,0.01,-0.13,1.07
653,0.02,0.50,1.28,0.01,-0.12,1.06
654,0.06,0.29,0.66,0.02,-0.12,1.06
655,0.05,0.26,0.95,0.01,-0.12,1.06
656,-0.09,0.52,0.92,0.01,-0.12,1.05
657,-0.49,0.18,0.38,0.01,-0.12,1.06
658,-0.02,0.15,0.98,0.02,-0.12,1.07
659,0.24,-0.03,1.57,0.01,-0.13,1.07
660,0.34,-0.24,1.44,0.01,-0.12,1.07
661,0.12,-0.17,0.99,0.01,-0.13,1.07
662,0.23,-0.23,1.08,0.01,-0.12,1.06
663,-0.26,-0.40,1.21,0.01,-0.13,1.06
664,-0.27,-0.60,0.87,0.02,-0.12,1.06
665,-0.12,-0.55,0.73,0.01,-0.13,1.07
666,-0.49,-0.64,1.10,0.02,-0.13,1.06
667,-0.41,-0.23,0.60,0.02,-0.13,1.06
668,-0.29,0.17,0.17,0.03,-0.13,1.05
669,-0.38,0.08,0.79,0.02,-0.13,1.06
670,0.09,0.47,1.21,0.02,-0.12,1.05
671,0.69,0.55,1.16,0.02,-0.13,1.06
672,0.82,0.72,1.10,0.02,-0.13,1.07
673,0.32,0.63,0.82,0.02,-0.13,1.06
674,0.08,0.53,0.82,0.02,-0.13,1.07
675,0.41,0.81,1.18,0.02,-0.13,1.06
676,0.38,0.95,1.16,0.02,-0.12,1.06
677,0.14,1.07,1.05,0.02,-0.13,1.06
678,0.27,1.02,0.49,0.01,-0.12,1.07
679,0.12,0.67,0.98,0.01,-0.13,1.07
680,-0.06,0.27,1.19,0.01,-0.12,1.07
681,0.09,0.29,0.52,0.00,-0.13,1.06
682,0.08,0.38,0.70,0.01,-0.13,1.07
683,0.06,-0.29,1.36,0.01,-0.12,1.05
684,0.23,-0.20,1.27,0.02,-0.13,1.06
685,0.26,-0.15,0.95,0.02,-0.13,1.06
686,0.26,-0.11,1.33,0.02,-0.12,1.06
687,-0.02,-0.09,1.31,0.02,-0.13,1.07
688,0.09,0.17,1.05,0.01,-0.13,1.06
689,-0.02,0.00,1.08,0.02,-0.13,1.06
690,0.00,0.09,1.31,0.03,-0.12,1.06
691,0.18,0.34,1.57,0.02,-0.13,1.06
692,0.53,0.66,1.13,0.03,-0.13,1.05
693,0.05,0.67,1.44,0.02,-0.14,1.05
694,-0.17,0.40,0.98,0.02,-0.13,1.06
695,-0.18,0.82,0.78,0.03,-0.12,1.07
696,0.29,0.46,1.27,0.01,-0.12,1.05
697,0.43,0.46,1.33,0.01,-0.12,1.06
698,0.20,0.27,0.56,0.01,-0.12,1.06
699,0.12,0.05,0.79,0.02,-0.13,1.06
700,0.18,0.00,1.21,0.01,-0.13,1.06
701,0.29,0.29,0.70,0.02,-0.13,1.08
702,0.15,0.09,0.26,0.01,-0.13,1.07
703,-0.06,-0.14,0.64,0.01,-0.13,1.06
704,-0.43,-0.14,0.37,0.02,-0.13,1.06
705,-0.43,-0.26,0.06,0.01,-0.12,1.06
706,-0.06,-0.18,0.87,0.02,-0.13,1.06
707,-0.18,0.23,1.21,0.02,-0.12,1.06
708,0.38,0.49,0.76,0.02,-0.13,1.06
709,0.64,0.37,1.02,0.03,-0.13,1.06
710,0.02,0.29,0.95,0.02,-0.13,1.06
711,-0.20,0.11,0.79,0.02,-0.12,1.06
712,0.24,0.17,0.75,0.02,-0.13,1.05
713,0.14,0.44,0.92,0.02,-0.12,1.06
714,0.37,0.72,1.07,0.02,-0.13,1.06
715,0.46,0.87,0.87,0.01,-0.12,1.07
716,0.44,0.79,1.07,0.02,-0.12,1.06
717,0.37,0.46,1.42,0.01,-0.12,1.06
718,0.40,0.64,1.13,0.02,-0.13,1.06
719,0.43,0.55,0.90,0.01,-0.13,1.07
720,0.27,0.43,1.04,0.01,-0.13,1.06
721,-0.05,0.34,1.04,0.01,-0.12,1.05
722,0.26,0.18,0.84,0.01,-0.13,1.07
723,0.18,0.15,0.64,0.01,-0.13,1.06
724,0.21,-0.09,0.85,0.02,-0.13,1.07
725,-0.15,0.27,0.58,0.01,-0.13,1.05
726,-0.05,0.31,0.61,0.02,-0.13,1.06
727,0.02,0.14,0.81,0.02,-0.13,1.05
728,-0.03,-0.05,0.63,0.02,-0.12,1.06
729,0.29,0.12,0.49,0.03,-0.13,1.06
730,0.35,0.40,1.13,0.02,-0.13,1.05
731,0.38,0.35,1.48,0.02,-0.13,1.06
732,0.41,0.49,0.87,0.02,-0.13,1.06
733,0.29,0.84,1.11,0.01,-0.13,1.06
734,-0.02,0.72,1.22,0.02,-0.12,1.05
735,-0.26,0.56,1.01,0.01,-0.12,1.07
736,0.15,0.29,0.81,0.01,-0.13,1.07
737,0.05,0.40,1.18,0.02,-0.13,1.06
738,0.18,0.52,1.13,0.01,-0.12,1.06
739,0.11,0.35,0.96,0.02,-0.12,1.05
740,0.37,0.37,0.72,0.01,-0.13,1.06
741,-0.03,0.06,1.18,0.01,-0.12,1.07
742,-0.05,0.46,0.87,0.02,-0.12,1.06
743,0.09,0.17,1.15,0.02,-0.13,1.07
744,0.09,0.08,1.18,0.01,-0.12,1.06
745,0.37,0.08,1.21,0.02,-0.13,1.06
746,0.60,0.12,1.21,0.02,-0.13,1.06
747,0.63,0.26,1.50,0.02,-0.13,1.06
748,0.31,0.37,1.45,0.02,-0.12,1.06
749,0.37,0.66,1.13,0.02,-0.12,1.05
750,0.29,0.67,1.13,0.02,-0.13,1.06
751,-0.12,0.53,1.22,0.01,-0.12,1.06
752,0.03,0.58,0.78,0.02,-0.13,1.06
753,0.09,0.56,0.73,0.01,-0.13,1.06
754,-0.18,0.55,0.87,0.01,-0.12,1.06
755,0.00,0.67,1.21,0.02,-0.12,1.07
756,0.18,0.72,0.76,0.02,-0.13,1.06
757,-0.32,0.55,0.72,0.01,-0.12,1.07
758,-0.31,0.34,0.64,0.01,-0.13,1.06
759,-0.34,0.49,0.58,0.02,-0.13,1.06
760,0.12,0.49,0.70,0.02,-0.12,1.06
761,0.03,0.73,0.85,0.01,-0.13,1.05
762,0.02,0.87,0.72,0.01,-0.13,1.07
763,0.41,0.37,1.33,0.01,-0.13,1.05
764,0.27,0.17,1.63,0.01,-0.13,1.06
765,0.24,0.41,1.16,0.01,-0.12,1.06
766,0.11,0.64,0.84,0.02,-0.12,1.06
767,0.08,0.35,0.95,0.02,-0.13,1.06
768,-0.34,0.20,0.96,0.02,-0.12,1.06
769,-0.08,0.29,0.99,0.02,-0.12,1.06
770,0.43,0.76,0.89,0.02,-0.13,1.06
771,0.27,0.47,1.11,0.02,-0.13,1.06
772,0.35,0.69,1.01,0.02,-0.12,1.06
773,0.38,0.64,0.49,0.02,-0.12,1.06
774,0.02,0.32,1.01,0.01,-0.13,1.06
775,-0.02,0.41,1.56,0.02,-0.12,1.07
776,0.27,0.26,1.11,0.01,-0.12,1.06
777,0.15,-0.26,1.19,0.01,-0.12,1.06
778,-0.27,-0.20,1.24,0.02,-0.12,1.06
779,-0.44,-0.31,1.04,0.02,-0.13,1.05
780,-0.27,-0.18,0.85,0.02,-0.13,1.06
781,-0.14,-0.15,1.34,0.02,-0.13,1.06
782,-0.21,0.35,1.24,0.02,-0.12,1.06
783,-0.18,0.32,0.92,0.02,-0.12,1.06
784,-0.03,0.34,1.10,0.02,-0.12,1.05
785,-0.17,0.34,0.99,0.02,-0.12,1.07
786,0.20,0.41,0.75,0.02,-0.12,1.04
787,0.56,0.96,0.75,0.02,-0.13,1.06
788,0.38,0.93,1.15,0.02,-0.13,1.05
789,0.14,0.99,0.89,0.02,-0.12,1.06
790,0.09,1.19,0.84,0.02,-0.12,1.06
791,0.08,1.15,1.07,0.02,-0.13,1.06
792,-0.02,0.92,1.28,0.01,-0.13,1.07
793,0.27,0.90,1.13,0.01,-0.13,1.07
794,0.21,0.79,0.95,0.01,-0.13,1.07
795,0.14,0.46,1.54,0.01,-0.13,1.06
796,0.27,0.34,1.28,0.01,-0.12,1.06
797,0.26,0.35,1.07,0.01,-0.13,1.06
798,0.00,0.24,1.21,0.01,-0.13,1.06
799,0.05,-0.05,1.34,0.01,-0.13,1.06
800,-0.18,0.03,0.61,0.01,-0.13,1.06
801,-0.27,-0.11,0.73,0.01,-0.13,1.06
802,-0.23,-0.29,1.22,0.02,-0.12,1.06
803,-0.12,0.09,0.82,0.01,-0.13,1.06
804,0.24,0.20,1.10,0.01,-0.13,1.06
805,0.35,0.53,1.71,0.02,-0.12,1.06
806,0.32,0.53,1.39,0.02,-0.13,1.07
807,0.00,0.66,0.64,0.02,-0.13,1.06
808,-0.15,0.40,0.72,0.02,-0.13,1.06
809,-0.26,0.26,1.10,0.02,-0.12,1.06
810,0.05,0.53,0.67,0.01,-0.12,1.06
811,0.11,0.67,0.76,0.01,-0.13,1.06
812,0.03,0.43,1.36,0.02,-0.13,1.05
813,-0.12,0.58,0.78,0.02,-0.13,1.07
814,-0.12,0.27,0.43,0.01,-0.13,1.06
815,-0.55,0.15,0.56,0.02,-0.13,1.05
816,-0.46,0.03,0.58,0.01,-0.13,1.05
817,-0.09,0.17,0.67,0.01,-0.13,1.06
818,0.09,0.12,1.01,0.02,-0.13,1.06
819,-0.32,0.23,1.01,0.03,-0.12,1.06
820,-0.09,0.23,0.61,0.01,-0.12,1.06
821,-0.11,0.09,0.67,0.02,-0.13,1.06
822,-0.23,-0.15,0.53,0.01,-0.13,1.06
823,-0.44,-0.05,0.20,0.01,-0.12,1.07
824,-0.31,0.12,0.18,0.02,-0.13,1.05
825,-0.02,-0.03,0.55,0.02,-0.13,1.06
826,-0.34,0.11,0.35,0.02,-0.12,1.05
827,-0.23,0.11,-0.29,0.02,-0.13,1.06
828,-0.34,0.76,0.06,0.02,-0.12,1.06
829,-0.17,0.55,0.58,0.02,-0.12,1.06
830,0.09,0.47,0.15,0.02,-0.13,1.06
831,0.05,0.64,-0.26,0.02,-0.13,1.06
832,-0.50,0.34,-0.32,0.02,-0.13,1.05
833,-0.92,0.23,-0.32,0.01,-0.13,1.07
834,-0.11,0.32,-0.18,0.02,-0.13,1.06
835,-0.14,0.43,-0.11,0.02,-0.13,1.06
836,-0.66,0.26,-0.61,0.02,-0.13,1.07
837,-1.15,-0.06,-1.97,0.01,-0.13,1.06
838,-3.60,-0.06,-5.19,0.00,-0.13,1.08
839,-1.45,-0.92,0.98,0.02,-0.12,1.05
840,0.29,-0.52,1.07,0.02,-0.11,1.06
841,0.90,0.46,-0.08,0.02,-0.12,1.06
842,0.24,0.40,1.01,0.02,-0.13,1.06
843,-0.78,-0.15,0.53,0.01,-0.13,1.08
844,-0.63,0.17,-0.43,0.02,-0.13,1.06
845,-0.35,-0.02,0.26,0.02,-0.13,1.07
846,-0.18,0.15,0.43,0.02,-0.12,1.06
847,0.11,-0.02,0.24,0.01,-0.13,1.06
848,0.34,0.06,1.01,0.02,-0.13,1.06
849,-0.20,0.18,0.98,0.02,-0.12,1.06
850,-0.09,0.37,0.67,0.02,-0.13,1.06
851,0.05,0.43,0.58,0.02,-0.13,1.06
852,-0.06,0.46,0.63,0.01,-0.14,1.06
853,-0.56,0.14,0.20,0.01,-0.13,1.06
854,-0.47,0.41,0.34,0.02,-0.13,1.06
855,-0.14,0.24,0.63,0.01,-0.13,1.05
856,-0.24,0.18,0.47,0.01,-0.13,1.06
857,0.12,0.17,0.47,0.02,-0.13,1.05
858,0.35,0.27,1.18,0.01,-0.13,1.06
859,0.27,0.00,1.51,0.02,-0.13,1.06
860,0.47,0.08,1.05,0.02,-0.13,1.06
861,0.64,0.41,1.22,0.02,-0.13,1.06
862,0.32,0.18,1.30,0.02,-0.13,1.07
863,0.18,0.15,1.47,0.02,-0.12,1.05
864,0.44,0.21,1.15,0.02,-0.13,1.06
865,0.17,0.23,1.22,0.02,-0.13,1.06
866,-0.18,0.47,0.52,0.02,-0.13,1.05
867,-0.06,0.20,0.60,0.01,-0.13,1.06
868,0.15,0.18,0.78,0.02,-0.13,1.06
869,0.23,0.14,0.87,0.02,-0.12,1.05
870,-0.05,0.23,0.38,0.02,-0.13,1.06
871,0.02,0.09,0.27,0.02,-0.13,1.06
872,0.00,0.49,0.85,0.03,-0.12,1.05
873,0.08,0.63,1.39,0.02,-0.13,1.06
874,0.95,1.05,1.51,0.03,-0.13,1.05
875,1.01,0.98,1.59,0.02,-0.13,1.05
876,0.46,0.79,1.10,0.01,-0.14,1.06
877,0.20,0.43,0.96,0.01,-0.13,1.06
878,0.18,0.18,0.70,0.01,-0.13,1.07
879,-0.03,0.49,1.24,0.01,-0.12,1.05
880,0.02,0.60,1.16,0.01,-0.12,1.05
881,0.50,0.53,1.56,0.02,-0.13,1.06
882,0.60,0.63,1.85,0.01,-0.13,1.07
883,0.40,0.56,1.48,0.01,-0.12,1.07
884,0.29,0.29,1.05,0.00,-0.13,1.07
885,0.52,0.00,1.18,0.01,-0.13,1.08
886,0.12,-0.76,1.68,0.00,-0.12,1.07
887,0.15,-0.52,1.37,0.02,-0.12,1.06
888,0.34,-0.43,1.21,0.01,-0.13,1.06
889,-0.03,-0.49,1.25,0.02,-0.13,1.06
890,-0.44,-0.73,1.42,0.01,-0.13,1.06
891,-0.20,-0.82,0.70,0.02,-0.13,1.06
892,-0.40,-0.89,0.79,0.02,-0.13,1.06
893,-0.61,-0.78,0.99,0.03,-0.13,1.05
894,-0.73,-0.32,0.96,0.03,-0.13,1.06
895,-0.40,0.27,0.76,0.04,-0.13,1.06
896,-0.21,0.87,0.98,0.04,-0.14,1.05
897,0.05,1.21,0.98,0.04,-0.13,1.05
898,0.67,1.33,1.44,0.03,-0.14,1.06
899,1.10,1.71,1.42,0.03,-0.13,1.06
900,0.60,1.89,1.40,0.03,-0.12,1.05
901,0.66,2.20,1.45,0.02,-0.12,1.06
902,1.50,2.55,1.97,0.02,-0.13,1.05
903,1.44,2.87,2.05,0.01,-0.12,1.06
904,1.25,2.53,1.80,0.00,-0.12,1.06
905,1.02,2.02,1.50,-0.01,-0.13,1.07
906,0.46,1.45,1.54,-0.01,-0.12,1.07
907,-0.23,0.66,1.47,-0.01,-0.12,1.07
908,-0.09,0.41,1.71,-0.01,-0.13,1.07
909,0.37,-0.47,2.00,-0.01,-0.12,1.06
910,0.08,-0.66,2.12,-0.00,-0.13,1.06
911,0.00,-0.75,1.69,0.01,-0.12,1.07
912,-0.47,-0.99,1.05,0.01,-0.13,1.06
913,-1.04,-1.50,1.24,0.02,-0.13,1.07
914,-1.02,-1.31,1.10,0.02,-0.13,1.07
915,-0.44,-1.18,1.05,0.03,-0.13,1.06
916,-0.26,-0.96,1.48,0.03,-0.13,1.06
917,-0.43,-0.64,1.15,0.04,-0.13,1.06
918,-0.34,-0.24,0.82,0.04,-0.14,1.04
919,0.06,0.67,1.19,0.04,-0.14,1.04
920,0.02,1.05,1.36,0.04,-0.13,1.05
921,0.24,1.63,1.30,0.04,-0.13,1.06
922,0.66,2.02,1.51,0.03,-0.13,1.05
923,1.01,2.27,1.92,0.02,-0.14,1.05
924,1.04,2.06,1.98,0.02,-0.13,1.05
925,1.19,2.14,1.50,0.02,-0.12,1.06
926,1.31,2.20,2.23,0.01,-0.12,1.06
927,1.05,1.89,2.35,0.01,-0.12,1.07
928,1.04,1.92,1.97,0.00,-0.12,1.07
929,0.89,1.33,1.65,-0.01,-0.12,1.07
930,0.89,0.95,2.53,0.00,-0.12,1.07
931,0.52,0.32,1.89,-0.01,-0.12,1.07
932,0.43,-0.20,1.37,-0.01,-0.12,1.07
933,-0.32,-0.61,1.22,-0.00,-0.12,1.07
934,-1.05,-1.10,1.07,-0.01,-0.11,1.07
935,-0.03,-1.36,1.47,0.01,-0.12,1.06
936,-0.50,-1.53,1.27,0.01,-0.13,1.07
937,-0.99,-1.69,0.79,0.02,-0.13,1.05
938,-1.08,-1.21,0.64,0.03,-0.14,1.05
939,-0.63,-0.70,0.46,0.03,-0.15,1.05
