,gyro_x,gyro_y,gyro_z,acce_x,acce_y,acce_z
0,-0.56,-1.74,0.89,0.01,-0.06,1.06
1,0.53,-1.05,0.93,0.01,-0.07,1.07
2,-0.23,-0.99,0.81,0.01,-0.06,1.07
3,-0.93,-1.45,0.38,0.01,-0.06,1.07
4,-1.30,-1.74,-0.08,0.01,-0.06,1.07
5,-0.38,-1.54,0.50,0.01,-0.06,1.07
6,0.03,-0.53,0.43,0.01,-0.06,1.06
7,0.66,-0.41,0.63,0.01,-0.07,1.06
8,0.53,-0.29,0.72,0.00,-0.07,1.07
9,0.17,-0.14,0.55,0.01,-0.07,1.07
10,-0.08,-0.58,0.05,0.01,-0.07,1.06
11,0.52,-1.05,0.37,0.01,-0.07,1.07
12,0.17,-0.55,0.37,0.01,-0.06,1.06
13,0.43,-0.03,0.70,0.00,-0.07,1.06
14,0.87,-0.06,0.58,0.01,-0.07,1.07
15,1.18,-0.08,1.07,0.01,-0.07,1.06
16,1.37,0.05,0.38,0.01,-0.07,1.07
17,1.82,-0.03,0.15,0.01,-0.07,1.07
18,1.02,0.40,-0.21,-0.00,-0.06,1.06
19,0.53,0.44,0.20,0.00,-0.05,1.07
20,0.72,-0.26,-0.11,-0.00,-0.06,1.07
21,0.55,-0.66,-0.34,-0.01,-0.06,1.07
22,0.38,-0.98,0.02,-0.01,-0.05,1.07
23,0.44,-0.81,-0.17,-0.00,-0.06,1.08
24,0.34,-1.28,-0.37,-0.00,-0.06,1.07
25,0.00,-1.50,0.06,0.00,-0.06,1.07
26,0.43,-1.39,0.12,0.01,-0.06,1.06
27,0.64,-1.69,0.35,0.00,-0.06,1.07
28,0.50,-1.34,0.24,0.01,-0.06,1.06
29,0.14,-1.19,0.50,0.02,-0.06,1.06
30,0.18,-1.19,0.18,0.01,-0.06,1.07
31,0.67,-0.84,0.23,0.01,-0.07,1.06
32,1.27,-0.89,0.34,0.00,-0.07,1.06
33,1.04,-0.78,-0.32,0.01,-0.07,1.08
34,0.66,-1.25,-0.34,0.01,-0.07,1.07
35,0.76,-0.81,-0.24,0.01,-0.06,1.07
36,0.87,-0.58,-0.55,0.02,-0.05,1.06
37,1.19,-0.66,-0.66,0.01,-0.06,1.07
38,1.40,-0.95,-0.82,0.01,-0.06,1.06
39,1.11,-0.98,-0.69,0.01,-0.06,1.07
40,0.90,-0.66,-1.47,0.01,-0.06,1.07
41,0.49,-0.34,-1.65,0.01,-0.07,1.06
42,0.60,-0.09,-1.63,0.01,-0.06,1.07
43,0.67,-0.67,-1.92,0.02,-0.05,1.08
44,0.60,-0.82,-1.60,0.01,-0.06,1.07
45,0.96,-0.41,-0.87,0.00,-0.06,1.06
46,1.22,-0.40,-0.75,0.01,-0.05,1.07
47,1.16,-0.66,-0.99,0.01,-0.06,1.08
48,0.63,-0.35,-0.78,0.02,-0.06,1.07
49,0.23,-0.49,-0.81,0.01,-0.06,1.06
50,0.55,-0.64,-1.11,0.01,-0.06,1.07
51,0.58,-0.38,-1.34,0.01,-0.06,1.07
52,0.72,-0.27,0.21,0.01,-0.05,1.06
53,-0.99,-1.08,-2.52,-0.01,-0.06,1.09
54,-3.34,-0.37,-2.87,0.01,-0.05,1.06
55,-1.92,1.37,0.69,0.02,-0.06,1.05
56,-0.41,0.32,0.17,0.01,-0.06,1.06
57,0.20,-0.43,-1.15,0.01,-0.06,1.06
58,0.52,-0.09,-0.96,0.01,-0.06,1.07
59,0.84,0.00,-0.26,0.01,-0.05,1.06
60,0.34,-0.09,-0.49,0.01,-0.05,1.06
61,-0.78,0.46,-0.49,0.02,-0.06,1.06
62,-0.76,0.55,-0.75,0.01,-0.06,1.08
63,0.76,0.34,-0.32,0.02,-0.06,1.07
64,1.92,0.23,0.50,0.00,-0.06,1.07
65,1.66,0.53,0.76,0.00,-0.05,1.07
66,0.53,0.23,-0.34,0.01,-0.05,1.07
67,-0.23,-0.32,-0.38,0.01,-0.05,1.07
68,-0.72,-0.12,-0.15,0.00,-0.05,1.07
69,-0.34,-0.18,0.18,0.00,-0.05,1.06
70,0.03,-0.34,0.32,0.01,-0.06,1.06
71,-0.46,-0.18,0.60,0.00,-0.06,1.07
72,-1.16,-0.37,0.50,0.01,-0.06,1.07
73,-1.18,-0.85,0.75,0.01,-0.06,1.07
74,-1.19,-0.75,0.87,0.00,-0.06,1.07
75,-0.50,-0.53,1.36,0.01,-0.06,1.07
76,-0.23,-0.58,1.15,0.01,-0.07,1.07
77,-0.18,-0.93,0.96,0.01,-0.07,1.06
78,-0.14,-0.73,2.00,0.02,-0.07,1.06
79,0.03,-0.55,1.91,0.03,-0.06,1.06
80,0.38,-0.21,2.09,0.02,-0.06,1.07
81,0.75,0.12,2.50,0.02,-0.06,1.07
82,0.41,0.15,1.97,0.02,-0.06,1.06
83,0.27,0.18,1.74,0.02,-0.05,1.06
84,0.87,-0.03,2.60,0.02,-0.06,1.07
85,1.08,0.53,2.63,0.01,-0.05,1.06
86,0.99,0.53,1.97,0.02,-0.06,1.06
87,1.11,0.55,1.71,0.02,-0.06,1.07
88,0.50,1.13,1.69,0.01,-0.06,1.07
89,0.27,0.76,1.54,0.02,-0.06,1.05
90,0.35,0.63,1.36,0.01,-0.06,1.07
91,0.08,0.69,1.85,0.01,-0.06,1.06
92,-0.09,0.85,1.40,0.01,-0.06,1.07
93,0.12,0.35,1.36,0.01,-0.06,1.08
94,0.35,0.55,1.60,0.01,-0.06,1.08
95,-0.08,0.81,1.57,0.01,-0.06,1.06
96,0.00,0.29,1.13,0.01,-0.06,1.06
97,0.15,0.50,1.50,0.01,-0.06,1.07
98,0.27,0.89,1.95,0.02,-0.06,1.07
99,0.14,1.07,1.48,0.01,-0.06,1.06
100,0.53,0.70,1.21,0.01,-0.06,1.07
101,0.47,0.92,1.50,0.01,-0.06,1.07
102,0.63,1.02,1.25,0.02,-0.06,1.06
103,0.70,0.49,1.05,0.01,-0.06,1.07
104,0.63,0.85,1.24,0.01,-0.07,1.07
105,0.37,1.24,1.45,0.01,-0.06,1.06
106,0.27,1.10,1.02,0.01,-0.06,1.06
107,0.20,0.85,0.79,0.01,-0.06,1.07
108,-0.02,0.84,1.25,0.01,-0.06,1.06
109,-0.37,0.96,0.85,0.01,-0.06,1.07
110,-0.38,0.82,0.56,0.01,-0.06,1.06
111,-0.03,0.95,1.60,0.01,-0.06,1.06
112,0.20,0.92,1.59,0.01,-0.07,1.06
113,0.09,0.35,0.98,0.01,-0.06,1.07
114,-0.09,0.47,1.22,-0.00,-0.07,1.07
115,0.12,0.87,1.63,0.01,-0.06,1.07
116,0.34,0.50,1.57,0.01,-0.06,1.06
117,0.56,0.55,1.97,0.01,-0.06,1.07
118,0.52,0.92,2.20,0.01,-0.06,1.06
119,0.24,0.95,1.53,0.01,-0.05,1.06
120,0.14,0.82,1.42,-0.00,-0.06,1.07
121,0.27,0.76,1.28,0.00,-0.07,1.06
122,-0.27,0.56,1.28,0.00,-0.06,1.07
123,-0.05,0.41,0.85,0.00,-0.06,1.07
124,0.09,0.35,1.13,0.00,-0.06,1.07
125,-0.21,0.37,1.36,0.01,-0.05,1.06
126,-0.41,0.47,0.93,0.01,-0.06,1.07
127,-0.56,-0.02,0.41,-0.00,-0.06,1.07
128,-0.53,0.06,1.07,0.00,-0.05,1.06
129,-0.53,-0.12,0.89,0.00,-0.06,1.07
130,-0.05,-0.29,0.70,0.00,-0.07,1.07
131,0.06,-0.03,1.36,0.01,-0.06,1.06
132,0.29,0.09,1.16,0.01,-0.06,1.07
133,0.06,0.17,1.19,0.01,-0.07,1.07
134,0.29,-0.17,1.54,0.01,-0.06,1.06
135,0.49,0.52,1.74,0.01,-0.06,1.06
136,0.23,0.34,1.45,0.02,-0.06,1.07
137,0.52,0.12,1.42,0.02,-0.06,1.06
138,0.73,0.26,1.59,0.02,-0.06,1.06
139,0.75,0.40,1.16,0.01,-0.06,1.06
140,0.15,0.52,0.50,0.02,-0.06,1.06
141,-0.24,0.03,0.41,0.02,-0.06,1.07
142,-0.03,0.32,1.10,0.02,-0.06,1.06
143,0.72,0.58,1.30,0.01,-0.06,1.06
144,1.16,1.10,1.08,0.01,-0.06,1.07
145,1.36,1.21,1.85,0.02,-0.06,1.06
146,1.07,1.11,1.57,0.00,-0.06,1.06
147,0.58,0.72,0.53,0.00,-0.06,1.08
148,0.40,0.43,0.75,0.01,-0.05,1.07
149,0.43,0.06,1.07,0.01,-0.06,1.07
150,0.21,0.21,0.44,0.00,-0.05,1.07
151,0.24,-0.23,0.40,0.00,-0.06,1.07
152,0.20,0.21,0.95,0.02,-0.06,1.06
153,0.34,0.24,1.33,0.01,-0.06,1.07
154,0.61,0.23,0.93,0.01,-0.06,1.07
155,0.60,0.18,0.93,0.01,-0.07,1.07
156,0.27,0.23,0.61,0.00,-0.05,1.07
157,-0.38,-0.21,0.34,0.00,-0.05,1.07
158,0.06,-0.41,1.07,0.00,-0.05,1.06
159,0.18,-0.21,1.85,0.01,-0.05,1.06
160,0.46,-0.11,1.50,0.00,-0.05,1.07
161,0.23,-0.60,1.05,0.01,-0.05,1.07
162,-0.38,-0.58,0.85,0.01,-0.06,1.07
163,-0.15,-0.47,0.84,0.02,-0.06,1.07
164,0.11,-0.61,1.40,0.02,-0.07,1.06
165,0.29,-0.35,1.94,0.01,-0.06,1.07
166,0.75,0.50,1.86,0.02,-0.06,1.06
167,0.60,0.46,1.39,0.02,-0.06,1.06
168,0.24,0.64,1.01,0.01,-0.06,1.07
169,-0.02,0.72,0.90,0.02,-0.05,1.07
170,0.05,0.85,0.72,0.01,-0.06,1.06
171,0.29,0.64,0.69,0.01,-0.06,1.06
172,0.29,0.72,0.73,0.01,-0.06,1.07
173,0.06,0.99,0.67,0.01,-0.05,1.06
174,-0.14,0.73,0.44,0.01,-0.06,1.07
175,0.27,0.79,0.95,0.01,-0.06,1.07
176,0.73,0.72,1.47,0.01,-0.06,1.07
177,0.44,0.44,0.90,0.01,-0.05,1.07
178,0.49,0.34,0.50,0.00,-0.06,1.07
179,-0.14,0.53,0.85,0.00,-0.06,1.07
180,-0.46,0.03,0.56,-0.00,-0.05,1.07
181,-0.18,-0.44,0.84,0.01,-0.06,1.08
182,0.14,-0.09,1.31,0.00,-0.06,1.06
183,0.37,0.12,1.62,0.01,-0.06,1.06
184,0.96,0.12,1.82,0.01,-0.06,1.07
185,1.02,0.29,2.17,0.01,-0.06,1.07
186,0.32,0.52,2.03,0.01,-0.06,1.06
187,0.20,0.29,1.42,0.01,-0.05,1.06
188,0.20,-0.18,1.10,0.01,-0.06,1.07
189,-0.17,0.41,1.57,0.01,-0.06,1.07
190,-0.02,0.47,0.96,0.01,-0.06,1.07
191,-0.23,0.35,0.37,0.01,-0.06,1.07
192,-0.34,0.32,0.73,0.01,-0.07,1.06
193,-0.31,0.37,0.43,0.01,-0.06,1.07
194,-0.44,-0.11,-0.05,0.01,-0.06,1.07
195,-0.46,0.23,-0.06,0.01,-0.06,1.07
196,-0.24,0.55,0.63,0.01,-0.06,1.06
197,0.31,0.18,0.64,0.01,-0.05,1.06
198,0.31,0.29,0.89,0.01,-0.06,1.06
199,0.55,0.37,1.57,0.01,-0.06,1.06
200,0.43,0.56,1.74,0.01,-0.05,1.06
201,0.93,0.64,2.11,0.01,-0.06,1.07
202,0.90,0.93,2.44,0.01,-0.05,1.06
203,0.56,0.64,1.74,0.01,-0.06,1.07
204,0.43,0.18,1.04,0.00,-0.06,1.07
205,0.17,0.32,0.95,0.01,-0.06,1.07
206,-0.09,0.31,1.13,0.01,-0.07,1.07
207,-0.20,0.27,0.76,0.01,-0.06,1.07
208,-0.02,0.00,0.40,0.02,-0.06,1.06
209,-0.52,0.32,0.53,0.01,-0.05,1.07
210,-0.78,0.60,0.69,0.01,-0.05,1.06
211,-0.32,0.34,0.84,0.01,-0.06,1.06
212,-0.05,1.04,1.36,0.01,-0.06,1.06
213,0.76,1.11,1.89,0.01,-0.06,1.07
214,1.05,0.63,1.48,0.01,-0.06,1.07
215,0.93,0.46,1.37,0.01,-0.06,1.07
216,0.55,0.29,1.89,0.01,-0.06,1.06
217,0.49,0.49,1.34,0.01,-0.06,1.06
218,0.20,0.55,0.84,0.01,-0.06,1.07
219,0.26,0.53,1.33,0.00,-0.06,1.06
220,0.20,0.40,1.31,0.01,-0.06,1.07
221,-0.03,0.12,0.61,-0.00,-0.06,1.06
222,-0.12,-0.08,0.66,0.00,-0.06,1.06
223,-0.24,0.08,1.16,0.01,-0.05,1.07
224,-0.27,0.15,0.69,0.02,-0.06,1.07
225,-0.20,0.32,1.01,0.01,-0.06,1.07
226,0.35,0.53,1.57,0.01,-0.06,1.07
227,0.05,0.40,0.98,0.01,-0.05,1.07
228,-0.32,0.53,0.64,0.01,-0.05,1.07
229,-0.53,0.38,0.56,0.01,-0.06,1.07
230,-0.38,0.75,0.76,0.02,-0.06,1.06
231,0.26,0.87,0.76,0.02,-0.06,1.07
232,0.66,0.82,1.22,0.01,-0.06,1.06
233,1.10,1.05,1.74,0.01,-0.06,1.06
234,1.28,0.82,2.06,0.01,-0.06,1.06
235,0.96,0.70,1.33,0.01,-0.06,1.07
236,0.63,0.55,1.37,0.00,-0.06,1.06
237,0.23,0.64,1.21,0.01,-0.05,1.07
238,0.34,0.26,0.85,0.00,-0.06,1.07
239,0.44,0.46,1.36,0.01,-0.06,1.07
240,0.05,0.72,1.56,0.00,-0.06,1.07
241,-0.35,0.56,1.05,0.01,-0.05,1.07
242,-0.32,0.32,1.22,0.00,-0.05,1.07
243,-0.40,0.60,1.51,0.00,-0.07,1.06
244,-0.37,0.08,0.93,0.01,-0.05,1.06
245,0.11,-0.11,1.22,0.01,-0.06,1.06
246,0.26,0.26,1.48,0.01,-0.06,1.06
247,0.02,0.12,1.15,-0.00,-0.06,1.07
248,-0.02,0.03,1.01,0.01,-0.06,1.07
249,0.46,-0.11,1.86,0.01,-0.06,1.07
250,0.32,0.03,1.57,0.02,-0.05,1.05
251,0.17,0.14,0.87,0.01,-0.06,1.07
252,0.27,0.14,0.90,0.01,-0.06,1.06
253,0.21,0.41,1.66,0.01,-0.06,1.06
254,0.55,0.50,1.59,0.01,-0.06,1.07
255,0.55,0.40,0.78,0.01,-0.06,1.07
256,0.29,0.56,0.85,0.01,-0.06,1.07
257,-0.32,0.76,0.73,0.01,-0.06,1.06
258,-0.02,0.61,0.60,0.02,-0.06,1.06
259,0.44,0.56,1.10,0.01,-0.07,1.07
260,0.18,1.15,0.89,0.01,-0.06,1.07
261,0.00,0.75,0.90,0.00,-0.06,1.07
262,0.49,0.31,1.28,0.00,-0.06,1.06
263,0.79,0.56,1.92,0.01,-0.06,1.06
264,0.49,0.70,1.34,0.01,-0.05,1.06
265,0.49,0.35,0.81,0.00,-0.06,1.07
266,0.61,0.49,1.21,0.01,-0.06,1.07
267,0.43,0.55,1.22,0.01,-0.05,1.06
268,0.78,0.46,1.08,0.02,-0.06,1.07
269,0.89,0.37,1.21,0.00,-0.06,1.08
270,0.63,0.47,1.25,0.00,-0.05,1.07
271,0.34,0.29,1.33,0.00,-0.05,1.07
272,-0.23,-0.06,0.60,-0.00,-0.05,1.07
273,-0.61,-0.26,0.46,0.00,-0.05,1.07
274,-0.60,-0.31,0.90,0.01,-0.05,1.07
275,-0.14,-0.35,1.22,0.01,-0.06,1.07
276,0.08,-0.11,1.42,0.01,-0.07,1.07
277,-0.18,-0.05,1.22,0.01,-0.06,1.06
278,-0.43,-0.17,0.50,0.01,-0.05,1.08
279,-0.66,-0.24,0.40,0.02,-0.07,1.06
280,-0.92,0.20,0.58,0.01,-0.06,1.07
281,-0.63,0.61,0.44,0.01,-0.06,1.06
282,0.11,0.41,1.07,0.01,-0.06,1.07
283,0.02,0.55,1.10,0.02,-0.06,1.06
284,-0.32,0.73,0.44,0.01,-0.06,1.07
285,0.12,0.55,0.38,0.01,-0.06,1.06
286,0.53,0.73,0.70,0.01,-0.06,1.06
287,0.40,0.82,1.01,0.01,-0.06,1.05
288,0.15,0.63,0.56,0.01,-0.06,1.06
289,0.18,0.38,0.93,0.00,-0.06,1.08
290,0.55,0.85,1.79,0.01,-0.06,1.06
291,0.78,0.81,1.77,0.01,-0.06,1.07
292,0.43,0.46,0.90,0.01,-0.05,1.06
293,-0.35,0.40,0.99,0.01,-0.07,1.06
294,-0.49,0.17,1.28,0.00,-0.06,1.07
295,-0.29,0.03,1.18,-0.00,-0.06,1.07
296,-0.26,0.21,1.18,0.01,-0.06,1.07
297,0.00,0.61,1.63,0.01,-0.07,1.06
298,0.31,0.49,1.18,0.01,-0.06,1.07
299,-0.03,0.12,0.52,0.00,-0.06,1.07
300,-0.53,-0.11,0.27,0.01,-0.06,1.07
301,-0.38,0.03,0.70,0.01,-0.06,1.07
302,0.44,0.02,1.36,0.01,-0.06,1.06
303,0.50,0.08,1.50,0.01,-0.06,1.06
304,0.31,0.37,1.74,0.01,-0.06,1.06
305,0.02,0.53,1.44,0.02,-0.06,1.06
306,-0.21,0.47,1.59,0.01,-0.06,1.07
307,-0.24,0.44,1.45,0.01,-0.06,1.07
308,-0.27,0.50,1.18,0.00,-0.05,1.07
309,0.09,0.34,1.11,0.01,-0.06,1.07
310,0.38,0.24,1.44,0.01,-0.06,1.07
311,0.03,0.49,1.08,0.01,-0.06,1.06
312,0.11,0.20,0.56,0.01,-0.06,1.07
313,-0.14,-0.11,0.50,0.00,-0.06,1.06
314,-0.17,0.46,0.84,0.01,-0.06,1.06
315,-0.29,0.17,0.64,0.01,-0.06,1.07
316,-0.38,0.31,0.53,0.00,-0.06,1.07
317,-0.61,0.14,0.53,0.00,-0.05,1.07
318,-0.56,0.11,0.99,0.01,-0.06,1.06
319,-0.46,0.40,1.47,0.01,-0.06,1.07
320,0.11,0.20,1.40,0.01,-0.06,1.07
321,-0.12,0.15,1.36,0.01,-0.06,1.06
322,-0.08,0.46,0.84,0.01,-0.06,1.06
323,-0.21,0.23,0.53,0.01,-0.06,1.07
324,-0.12,0.55,0.98,0.01,-0.06,1.07
325,-0.18,0.76,1.04,0.01,-0.06,1.06
326,0.26,0.82,0.70,0.02,-0.06,1.06
327,0.58,1.11,1.45,0.02,-0.07,1.07
328,1.31,1.13,1.80,0.01,-0.06,1.06
329,1.34,1.25,1.50,0.01,-0.06,1.07
330,1.11,1.53,1.13,0.01,-0.06,1.06
331,0.87,1.74,1.18,0.00,-0.06,1.08
332,0.40,1.21,0.43,0.00,-0.06,1.07
333,0.14,1.19,0.61,0.00,-0.06,1.07
334,0.17,1.22,0.81,0.01,-0.06,1.07
335,0.23,0.73,1.05,0.01,-0.06,1.07
336,0.38,0.69,0.93,0.00,-0.06,1.07
337,0.20,0.38,0.49,0.00,-0.06,1.07
338,-0.70,0.06,-0.11,0.01,-0.06,1.07
339,-1.10,-0.06,-0.15,0.00,-0.06,1.07
340,-0.63,0.02,0.09,0.00,-0.06,1.06
341,-0.75,0.50,0.08,0.00,-0.06,1.06
342,-0.02,0.29,0.84,0.02,-0.06,1.06
343,0.05,0.27,1.04,0.01,-0.06,1.06
344,-0.03,0.44,1.08,0.01,-0.06,1.06
345,-0.12,0.09,1.28,0.00,-0.05,1.07
346,0.11,0.14,1.37,0.01,-0.06,1.07
347,0.21,0.21,0.96,0.01,-0.06,1.08
348,0.09,0.24,1.30,0.01,-0.06,1.06
349,0.17,0.75,1.21,0.01,-0.05,1.07
350,0.32,0.24,1.04,0.01,-0.07,1.07
351,0.11,0.46,1.04,0.01,-0.06,1.06
352,-0.03,0.35,1.10,0.00,-0.06,1.06
353,-0.08,0.06,1.08,0.00,-0.06,1.07
354,0.26,0.40,1.47,0.01,-0.06,1.07
355,0.08,0.52,1.33,0.01,-0.06,1.06
356,-0.17,0.26,1.08,0.00,-0.06,1.06
357,-0.35,0.06,0.56,0.00,-0.06,1.07
358,-0.73,0.37,1.02,0.01,-0.05,1.06
359,-0.26,0.32,1.31,0.01,-0.06,1.07
360,-0.24,0.27,1.30,0.01,-0.06,1.07
361,-0.06,0.26,1.13,0.00,-0.07,1.07
362,0.18,0.15,1.60,0.00,-0.06,1.06
363,0.05,0.11,1.24,0.01,-0.07,1.06
364,-0.21,0.41,0.64,0.01,-0.06,1.07
365,-0.03,0.20,1.40,0.01,-0.06,1.07
366,0.17,0.27,1.28,0.01,-0.06,1.06
367,0.21,0.47,1.11,0.01,-0.06,1.06
368,-0.02,0.55,1.22,0.02,-0.07,1.08
369,-0.24,0.09,0.87,0.01,-0.07,1.08
370,-0.23,-0.21,0.43,0.01,-0.06,1.08
371,-0.81,0.12,0.17,0.01,-0.06,1.06
372,-0.84,0.29,0.52,0.01,-0.06,1.07
373,-0.29,0.02,0.63,0.02,-0.07,1.07
374,-0.05,0.53,0.60,0.01,-0.06,1.06
375,-0.12,0.66,0.90,0.01,-0.06,1.06
376,0.11,0.76,1.33,0.01,-0.07,1.06
377,0.23,0.31,1.01,0.00,-0.06,1.07
378,-0.15,0.26,0.99,0.01,-0.06,1.08
379,0.02,0.26,1.07,0.01,-0.06,1.06
380,0.09,0.21,0.85,0.01,-0.06,1.07
381,-0.21,-0.06,0.31,-0.00,-0.06,1.08
382,-0.50,0.18,0.06,0.01,-0.06,1.06
383,-0.47,-0.06,0.06,0.01,-0.06,1.06
384,-0.05,-0.08,0.05,0.01,-0.07,1.07
385,0.06,0.15,0.44,0.01,-0.06,1.06
386,0.32,0.26,1.10,0.00,-0.06,1.06
387,0.15,0.17,0.89,-0.00,-0.05,1.07
388,0.05,0.20,1.53,0.00,-0.06,1.07
389,-0.15,0.06,1.28,0.00,-0.05,1.07
390,-0.14,-0.15,1.42,0.01,-0.06,1.07
391,-0.44,-0.21,1.15,0.00,-0.06,1.07
392,-0.18,-0.29,1.39,0.00,-0.06,1.07
393,-0.41,-0.12,1.28,0.01,-0.06,1.07
394,-0.21,-0.40,1.37,0.01,-0.06,1.06
395,-0.03,-0.06,1.25,0.01,-0.07,1.06
396,-0.53,0.09,0.75,0.01,-0.06,1.07
397,-0.69,-0.32,0.53,0.01,-0.07,1.07
398,-0.26,0.24,0.78,0.01,-0.06,1.06
399,0.21,0.64,0.95,0.02,-0.06,1.06
400,0.06,0.23,0.58,0.01,-0.06,1.07
401,0.02,0.46,0.40,0.01,-0.06,1.06
402,-0.03,0.76,0.53,0.01,-0.06,1.07
403,-0.47,0.61,0.44,0.02,-0.06,1.06
404,-0.03,0.52,0.44,0.00,-0.06,1.07
405,0.26,0.60,0.55,0.01,-0.06,1.06
406,0.38,0.66,1.07,0.01,-0.06,1.06
407,0.46,0.79,0.82,0.01,-0.06,1.07
408,0.24,0.66,0.96,0.01,-0.06,1.07
409,0.41,0.26,1.11,0.00,-0.07,1.07
410,0.43,0.23,1.36,0.00,-0.06,1.07
411,0.35,-0.06,1.04,0.00,-0.06,1.07
412,-0.12,0.05,1.04,0.00,-0.06,1.07
413,-0.32,0.29,1.10,0.00,-0.06,1.06
414,-0.06,0.05,0.93,0.01,-0.07,1.06
415,-0.11,0.23,0.98,0.01,-0.07,1.06
416,-0.17,0.24,1.01,0.01,-0.06,1.07
417,0.00,0.18,0.78,0.01,-0.06,1.06
418,-0.14,-0.24,0.43,0.01,-0.07,1.07
419,-0.43,-0.12,0.49,0.01,-0.06,1.07
420,-0.50,-0.17,0.67,0.01,-0.06,1.07
421,0.05,0.31,1.19,0.01,-0.06,1.07
422,0.70,0.49,1.44,0.01,-0.06,1.07
423,1.11,0.66,1.54,0.02,-0.07,1.06
424,0.63,0.37,1.10,0.01,-0.06,1.07
425,0.44,0.12,0.87,0.00,-0.06,1.08
426,0.09,0.21,1.63,0.01,-0.06,1.06
427,0.14,0.41,1.80,0.01,-0.06,1.06
428,0.53,0.41,1.30,0.00,-0.06,1.07
429,0.29,0.34,1.48,0.00,-0.06,1.07
430,-0.37,0.05,1.08,0.01,-0.06,1.07
431,-0.44,-0.23,0.41,0.00,-0.07,1.07
432,-0.20,-0.11,0.41,0.01,-0.07,1.07
433,0.00,0.05,0.82,0.01,-0.06,1.07
434,-0.37,0.03,0.66,0.01,-0.06,1.07
435,-0.14,0.34,0.58,0.01,-0.05,1.07
436,0.15,0.50,0.98,0.01,-0.06,1.06
437,0.27,0.58,1.40,0.01,-0.06,1.06
438,0.76,0.49,1.31,0.02,-0.06,1.07
439,0.29,0.34,0.96,0.01,-0.06,1.06
440,-0.11,0.34,0.75,0.01,-0.06,1.06
441,-0.03,0.23,0.76,0.01,-0.07,1.07
442,0.29,0.35,1.04,0.01,-0.06,1.07
443,0.49,0.75,1.50,0.01,-0.06,1.07
444,0.58,0.89,1.25,0.02,-0.06,1.07
445,0.27,0.66,0.76,0.01,-0.06,1.08
446,0.12,0.26,1.02,0.01,-0.06,1.06
447,0.37,0.31,1.44,0.00,-0.06,1.08
448,0.35,-0.12,1.07,0.01,-0.05,1.07
449,0.23,0.11,0.63,0.00,-0.06,1.07
450,-0.24,-0.02,0.79,0.00,-0.06,1.07
451,-0.89,-0.08,0.37,0.01,-0.06,1.07
452,-0.67,-0.08,0.00,0.01,-0.06,1.07
453,-0.50,-0.08,0.60,0.02,-0.06,1.07
454,-0.17,0.11,1.11,0.01,-0.06,1.06
455,0.11,0.06,1.01,0.01,-0.06,1.06
456,0.09,0.43,0.82,0.01,-0.06,1.06
457,-0.21,0.63,0.63,0.02,-0.06,1.06
458,-0.40,0.03,0.79,0.01,-0.06,1.07
459,0.20,0.49,1.01,0.01,-0.07,1.07
460,0.60,0.58,1.36,0.01,-0.06,1.07
461,0.06,0.66,0.87,0.01,-0.05,1.06
462,0.06,0.58,0.69,0.01,-0.06,1.07
463,0.06,0.55,1.13,0.01,-0.06,1.06
464,0.05,0.50,1.08,0.01,-0.06,1.06
465,0.20,0.34,0.78,0.01,-0.06,1.07
466,0.34,0.35,0.67,0.01,-0.07,1.07
467,0.66,0.47,1.27,0.01,-0.07,1.06
468,0.81,0.08,1.44,0.01,-0.06,1.07
469,1.21,0.00,1.31,0.00,-0.06,1.08
470,0.95,0.43,1.44,0.01,-0.06,1.06
471,0.31,0.41,1.40,0.01,-0.06,1.06
472,0.34,0.05,0.70,0.01,-0.06,1.07
473,-0.35,0.24,0.72,0.01,-0.06,1.07
474,-0.52,0.29,0.73,0.01,-0.06,1.05
475,-0.38,0.14,0.56,0.01,-0.06,1.06
476,0.06,0.14,1.08,0.01,-0.07,1.07
477,0.15,0.41,1.45,0.01,-0.06,1.06
478,-0.03,0.23,1.31,0.01,-0.06,1.06
479,0.09,0.11,1.10,0.01,-0.06,1.07
480,-0.05,0.46,1.07,0.00,-0.07,1.06
481,-0.05,0.08,1.11,0.01,-0.06,1.07
482,-0.06,-0.08,0.70,0.01,-0.06,1.07
483,0.00,0.06,0.58,0.01,-0.06,1.07
484,-0.37,0.53,0.72,0.01,-0.06,1.06
485,-0.50,0.53,0.15,0.01,-0.06,1.06
486,-0.55,0.06,0.11,0.01,-0.06,1.07
487,-0.17,-0.03,0.84,0.02,-0.07,1.07
488,0.09,0.23,1.08,0.01,-0.06,1.06
489,0.37,0.18,1.21,0.01,-0.06,1.07
490,0.24,0.23,1.39,0.01,-0.07,1.06
491,0.38,0.31,1.74,0.02,-0.06,1.06
492,0.24,0.12,1.45,0.01,-0.06,1.07
493,0.56,0.06,0.79,0.02,-0.06,1.07
494,0.34,0.40,0.78,0.01,-0.06,1.07
495,-0.05,0.00,0.43,0.01,-0.06,1.06
496,-0.38,0.27,0.00,0.01,-0.05,1.06
497,-0.49,0.61,0.18,0.01,-0.06,1.07
498,-0.26,0.47,0.82,0.01,-0.06,1.07
499,0.15,0.61,0.56,0.01,-0.07,1.06
500,0.31,0.46,1.01,0.01,-0.06,1.06
501,0.18,0.53,1.40,0.01,-0.06,1.07
502,0.38,0.38,1.77,0.00,-0.07,1.06
503,0.43,0.21,1.66,0.01,-0.06,1.08
504,0.37,0.27,1.68,0.00,-0.06,1.06
505,-0.03,-0.17,1.40,0.00,-0.06,1.07
506,-0.29,-0.21,0.96,-0.01,-0.06,1.08
507,-0.61,0.03,1.07,0.00,-0.06,1.07
508,-0.84,-0.14,0.81,0.02,-0.06,1.06
509,-0.87,-0.41,0.64,0.02,-0.06,1.07
510,-1.18,-0.21,0.73,0.01,-0.07,1.07
511,-1.02,-0.14,0.96,0.02,-0.07,1.07
512,-0.55,-0.05,0.73,0.02,-0.06,1.06
513,-0.75,0.18,0.37,0.02,-0.06,1.08
514,-0.43,0.02,0.50,0.02,-0.06,1.06
515,-0.61,0.34,0.46,0.02,-0.06,1.07
516,-0.76,0.34,0.02,0.01,-0.05,1.06
517,-0.26,0.55,0.14,0.02,-0.06,1.06
518,0.02,0.93,0.89,0.02,-0.06,1.05
519,0.49,0.96,1.37,0.01,-0.06,1.06
520,0.84,0.99,1.21,0.01,-0.06,1.07
521,0.60,1.30,1.34,0.01,-0.06,1.07
522,0.34,0.96,0.92,0.01,-0.06,1.07
523,-0.08,0.75,0.56,0.01,-0.06,1.07
524,0.09,0.40,1.30,0.01,-0.06,1.06
525,0.73,0.72,1.80,0.01,-0.06,1.07
526,0.55,0.35,1.57,0.01,-0.05,1.06
527,0.52,0.44,1.28,0.01,-0.06,1.07
528,0.00,0.56,1.48,0.01,-0.05,1.07
529,-0.41,0.43,1.11,0.01,-0.06,1.07
530,-0.03,0.49,0.90,0.01,-0.07,1.06
531,-0.12,0.78,1.36,0.01,-0.07,1.06
532,0.03,0.44,1.53,0.01,-0.06,1.06
533,0.08,0.37,1.40,0.01,-0.06,1.07
534,0.14,0.38,1.53,0.01,-0.07,1.07
535,0.24,0.56,1.53,0.00,-0.06,1.07
536,0.11,0.44,1.33,0.01,-0.07,1.07
537,0.06,0.05,0.66,0.01,-0.07,1.07
538,-0.18,0.34,0.73,0.01,-0.07,1.07
539,-0.09,0.18,1.07,0.01,-0.06,1.06
540,0.46,0.35,1.25,0.01,-0.06,1.07
541,0.44,0.37,1.48,0.02,-0.06,1.06
542,0.17,0.82,1.31,0.01,-0.06,1.06
543,-0.09,0.53,1.11,0.01,-0.06,1.07
544,0.12,0.34,1.07,0.01,-0.06,1.07
545,-0.23,0.21,0.90,0.01,-0.06,1.07
546,-0.15,0.35,0.96,0.01,-0.06,1.06
547,-0.11,0.05,1.05,0.01,-0.07,1.06
548,0.18,0.63,1.83,0.01,-0.07,1.06
549,0.29,0.95,1.82,0.01,-0.06,1.07
550,0.50,0.73,1.19,0.01,-0.07,1.07
551,0.66,0.67,1.50,0.00,-0.06,1.06
552,0.34,0.60,1.33,0.01,-0.06,1.06
553,-0.02,0.08,0.63,0.01,-0.06,1.06
554,-0.24,0.21,0.64,0.01,-0.06,1.07
555,-0.05,0.64,0.85,0.01,-0.06,1.06
556,-0.21,0.46,0.67,0.01,-0.05,1.06
557,-0.09,0.61,0.55,0.01,-0.06,1.06
558,-0.18,0.58,1.05,0.01,-0.06,1.07
559,0.18,0.67,1.22,0.01,-0.06,1.06
560,0.34,0.61,1.15,0.01,-0.06,1.06
561,0.40,0.40,1.01,0.01,-0.06,1.07
562,-0.09,0.60,1.28,0.01,-0.06,1.06
563,-0.08,0.70,0.75,0.01,-0.06,1.06
564,0.11,0.73,0.73,0.00,-0.06,1.07
565,0.05,0.50,1.01,0.01,-0.06,1.06
566,0.02,0.52,1.15,0.00,-0.07,1.07
567,0.27,0.21,1.04,0.00,-0.07,1.07
568,0.31,0.35,0.72,0.01,-0.07,1.07
569,-0.23,0.18,0.38,0.00,-0.07,1.07
570,-0.56,-0.17,0.55,0.01,-0.07,1.07
571,-0.41,-0.15,0.49,0.00,-0.07,1.06
572,-0.12,0.03,0.93,0.00,-0.06,1.06
573,0.31,0.12,1.27,0.02,-0.06,1.07
574,0.58,0.35,0.93,0.01,-0.06,1.07
575,0.31,0.29,1.15,0.01,-0.06,1.06
576,0.14,0.49,1.31,0.01,-0.06,1.06
577,0.14,0.26,0.76,0.01,-0.06,1.06
578,0.12,0.09,0.60,0.01,-0.07,1.07
579,-0.14,0.32,0.99,0.01,-0.07,1.07
580,0.00,0.34,0.93,0.01,-0.06,1.07
581,0.21,0.24,0.78,0.02,-0.07,1.07
582,-0.20,0.24,0.61,0.01,-0.06,1.07
583,-0.67,-0.03,0.37,0.01,-0.06,1.07
584,-0.84,-0.14,0.11,0.01,-0.06,1.07
585,-0.92,0.17,-0.20,0.01,-0.06,1.06
586,-0.95,0.70,0.06,0.01,-0.06,1.06
587,-0.23,0.75,0.75,0.01,-0.05,1.07
588,0.08,0.69,1.05,0.00,-0.06,1.07
589,0.72,0.67,1.73,0.00,-0.07,1.07
590,0.49,0.60,1.36,0.01,-0.07,1.07
591,0.02,0.15,0.70,-0.00,-0.07,1.08
592,-0.23,-0.17,0.95,0.00,-0.06,1.08
593,-0.12,-0.14,1.31,0.01,-0.06,1.06
594,0.08,0.00,1.02,0.01,-0.06,1.06
595,0.12,0.29,0.99,0.01,-0.06,1.07
596,0.24,0.47,1.48,0.01,-0.07,1.06
597,-0.17,0.43,0.84,0.02,-0.06,1.07
598,-0.40,0.23,0.12,0.01,-0.06,1.07
599,-0.05,0.03,1.22,0.01,-0.07,1.06
600,0.67,0.09,1.89,0.01,-0.06,1.06
601,1.10,0.23,2.17,0.02,-0.06,1.06
602,0.50,0.50,1.82,0.01,-0.06,1.06
603,0.21,0.31,1.59,0.01,-0.07,1.07
604,0.24,0.20,1.07,0.01,-0.07,1.07
605,0.46,0.26,0.84,0.01,-0.07,1.07
606,0.17,0.41,0.75,0.01,-0.07,1.07
607,0.24,0.49,0.85,0.01,-0.06,1.07
608,0.21,0.47,0.93,0.01,-0.06,1.06
609,-0.05,0.73,1.08,0.01,-0.07,1.06
610,0.26,0.75,1.31,0.01,-0.06,1.07
611,0.50,0.44,1.25,0.01,-0.06,1.06
612,0.43,0.09,0.89,0.00,-0.07,1.07
613,-0.02,0.06,0.63,0.01,-0.07,1.06
614,0.18,-0.09,0.96,0.01,-0.06,1.06
615,0.60,0.26,1.11,0.01,-0.07,1.07
616,0.98,0.43,1.48,0.01,-0.07,1.07
617,0.60,0.37,1.39,0.01,-0.06,1.06
618,0.38,0.27,0.82,0.01,-0.06,1.07
619,0.15,0.29,0.79,0.00,-0.06,1.06
620,-0.27,0.18,0.95,0.00,-0.06,1.07
621,-0.73,0.05,0.21,0.00,-0.06,1.06
622,-0.63,-0.50,0.46,0.01,-0.06,1.07
623,-0.21,-0.46,1.24,0.00,-0.07,1.07
624,-0.08,-0.61,1.82,0.01,-0.06,1.07
625,0.17,-0.24,1.57,0.01,-0.06,1.07
626,0.46,-0.17,1.59,0.01,-0.07,1.06
627,0.02,0.18,1.59,0.02,-0.06,1.05
628,-0.31,0.20,1.28,0.02,-0.06,1.06
629,0.27,0.11,1.36,0.01,-0.07,1.07
630,0.18,0.46,1.19,0.02,-0.07,1.06
631,0.20,0.50,1.11,0.01,-0.06,1.06
632,0.12,0.34,0.46,0.01,-0.06,1.06
633,0.00,0.58,0.82,0.01,-0.06,1.06
634,-0.14,0.90,0.92,0.02,-0.07,1.06
635,-0.06,0.84,0.05,0.02,-0.07,1.05
636,0.02,0.85,0.03,0.01,-0.07,1.06
637,-0.02,0.87,0.49,0.01,-0.06,1.06
638,0.24,0.69,0.84,0.00,-0.06,1.07
639,0.49,0.35,0.92,0.00,-0.06,1.07
640,0.87,0.44,1.37,0.01,-0.06,1.07
641,0.70,0.31,1.45,0.01,-0.06,1.06
642,0.15,0.32,0.93,0.00,-0.06,1.07
643,-0.06,0.17,0.76,0.01,-0.07,1.07
644,-0.35,0.26,1.24,0.01,-0.06,1.06
645,0.05,0.21,1.57,0.01,-0.06,1.07
646,0.46,0.06,1.33,0.01,-0.07,1.06
647,0.40,0.29,1.53,0.01,-0.06,1.07
648,0.08,0.37,1.68,0.02,-0.06,1.06
649,-0.02,0.31,1.01,0.01,-0.06,1.06
650,-0.09,0.21,1.11,0.01,-0.06,1.07
651,-0.37,0.34,1.08,0.01,-0.05,1.06
652,0.05,0.34,0.67,0.01,-0.07,1.07
653,0.40,0.49,1.33,0.01,-0.06,1.07
654,0.73,0.47,1.92,0.01,-0.07,1.07
655,0.53,0.44,1.62,0.01,-0.05,1.07
656,0.32,0.66,1.37,0.01,-0.06,1.07
657,0.12,0.56,1.25,0.01,-0.07,1.06
658,-0.06,0.32,1.11,0.01,-0.06,1.07
659,-0.20,0.26,0.79,0.01,-0.06,1.07
660,-0.34,0.46,0.67,0.01,-0.07,1.07
661,-0.15,0.76,1.27,0.01,-0.06,1.06
662,0.21,0.66,1.24,0.01,-0.06,1.07
663,-0.15,0.38,0.64,0.01,-0.07,1.07
664,-0.29,0.32,0.98,0.01,-0.06,1.06
665,-0.26,0.49,0.84,0.01,-0.06,1.08
666,0.05,0.02,1.04,0.01,-0.06,1.07
667,0.23,0.18,1.42,0.01,-0.06,1.07
668,0.24,0.61,1.40,0.01,-0.07,1.05
669,-0.17,0.55,0.98,0.01,-0.06,1.07
670,0.03,0.38,1.07,0.01,-0.07,1.07
671,-0.05,0.60,1.45,0.01,-0.06,1.07
672,-0.05,0.87,1.36,0.02,-0.06,1.06
673,0.37,0.82,1.24,0.01,-0.06,1.07
674,0.31,0.84,1.15,0.02,-0.07,1.07
675,-0.23,0.93,0.69,0.01,-0.07,1.07
676,-0.14,0.60,0.90,0.01,-0.07,1.07
677,0.14,0.76,1.22,0.01,-0.07,1.06
678,0.34,0.92,1.60,0.01,-0.06,1.06
679,0.40,0.50,1.28,-0.00,-0.07,1.07
680,0.55,0.24,1.18,0.01,-0.07,1.07
681,0.82,0.44,1.53,0.00,-0.07,1.07
682,0.26,0.32,1.05,0.01,-0.06,1.07
683,-0.17,-0.23,0.41,0.00,-0.06,1.07
684,-0.20,0.08,0.35,0.01,-0.06,1.08
685,-0.17,-0.15,0.75,0.01,-0.06,1.07
686,0.03,-0.34,1.21,0.01,-0.06,1.06
687,-0.03,0.09,0.90,0.02,-0.07,1.07
688,-0.21,-0.02,1.15,0.01,-0.06,1.06
689,-0.35,0.15,0.84,0.02,-0.07,1.06
690,-0.12,0.06,0.93,0.01,-0.07,1.06
691,0.06,0.44,0.89,0.01,-0.07,1.06
692,-0.05,0.35,0.89,0.02,-0.07,1.06
693,0.32,0.44,0.90,0.01,-0.07,1.06
694,0.46,0.84,1.19,0.01,-0.07,1.06
695,0.34,0.87,1.48,0.01,-0.07,1.06
696,0.47,0.78,0.67,0.01,-0.07,1.06
697,0.35,0.56,0.58,0.01,-0.06,1.07
698,-0.08,0.47,1.08,0.01,-0.06,1.06
699,0.11,0.56,1.33,0.01,-0.05,1.06
700,-0.02,0.60,1.33,0.01,-0.06,1.07
701,0.05,0.41,1.01,0.01,-0.07,1.07
702,-0.23,0.31,1.30,0.01,-0.06,1.07
703,-0.17,0.12,1.07,-0.00,-0.06,1.07
704,-0.15,-0.06,0.82,0.00,-0.06,1.07
705,-0.17,0.17,1.07,0.00,-0.06,1.07
706,-0.52,0.61,0.98,0.01,-0.06,1.07
707,-0.27,0.26,1.01,0.01,-0.06,1.07
708,0.14,0.17,1.18,0.01,-0.07,1.06
709,-0.11,0.23,0.95,0.00,-0.07,1.06
710,0.11,-0.43,1.04,0.01,-0.06,1.07
711,0.18,0.03,1.33,0.01,-0.07,1.08
712,0.20,0.11,1.24,0.01,-0.06,1.06
713,0.12,-0.18,0.56,0.01,-0.06,1.06
714,-0.05,-0.08,0.47,0.01,-0.07,1.07
715,-0.11,-0.02,0.72,0.01,-0.06,1.06
716,-0.11,0.12,0.49,0.02,-0.06,1.07
717,-0.29,0.34,0.12,0.02,-0.06,1.07
718,-0.14,0.56,1.08,0.01,-0.07,1.06
719,0.23,0.84,1.59,0.01,-0.06,1.07
720,0.46,0.56,1.31,0.01,-0.06,1.07
721,0.53,0.60,1.13,0.02,-0.07,1.06
722,0.32,0.66,1.24,0.01,-0.07,1.07
723,-0.05,0.35,1.01,0.01,-0.06,1.07
724,0.09,-0.15,0.56,0.01,-0.06,1.07
725,0.18,0.26,0.96,0.00,-0.07,1.06
726,0.35,0.23,1.33,0.01,-0.06,1.06
727,0.93,0.52,1.04,0.01,-0.06,1.06
728,0.41,0.50,0.85,0.00,-0.07,1.06
729,-0.32,0.61,0.49,0.01,-0.06,1.07
730,-0.31,0.49,0.41,0.00,-0.06,1.07
731,0.29,0.52,0.61,0.01,-0.06,1.07
732,0.89,0.81,1.71,0.01,-0.07,1.06
733,0.89,0.70,1.63,0.00,-0.06,1.06
734,0.49,0.37,0.84,0.01,-0.06,1.07
735,0.08,0.41,1.07,0.00,-0.07,1.08
736,-0.21,0.18,0.82,-0.00,-0.06,1.07
737,0.06,-0.18,0.75,0.01,-0.06,1.07
738,0.52,-0.14,1.42,0.01,-0.06,1.07
739,0.08,0.17,1.37,0.01,-0.06,1.06
740,0.08,0.12,0.81,0.01,-0.06,1.07
741,0.31,0.26,1.10,0.01,-0.07,1.06
742,0.82,0.38,1.30,0.01,-0.06,1.08
743,0.61,0.44,1.02,0.00,-0.07,1.07
744,0.52,-0.15,0.85,0.00,-0.07,1.07
745,0.24,-0.31,1.02,0.00,-0.06,1.08
746,-0.02,-0.14,0.81,0.00,-0.06,1.07
747,-0.29,-0.29,0.56,0.01,-0.06,1.07
748,-0.34,-0.38,0.52,0.01,-0.06,1.07
749,-0.37,-0.03,0.63,0.01,-0.06,1.06
750,-0.82,-0.09,0.60,0.01,-0.06,1.06
751,-0.40,-0.35,0.93,0.01,-0.07,1.08
752,-0.03,0.05,1.37,0.02,-0.07,1.06
753,-0.12,0.29,1.53,0.01,-0.07,1.06
754,-0.34,0.24,1.07,0.02,-0.06,1.06
755,-0.56,0.82,0.84,0.02,-0.07,1.06
756,-0.92,1.27,1.22,0.02,-0.07,1.07
757,-0.61,0.81,0.73,0.02,-0.06,1.07
758,-0.06,0.69,0.96,0.01,-0.06,1.07
759,0.50,0.66,1.30,0.01,-0.06,1.07
760,0.35,0.87,0.96,0.01,-0.06,1.06
761,0.21,1.19,0.29,0.01,-0.07,1.06
762,0.00,1.28,0.38,0.01,-0.07,1.06
763,0.03,1.33,0.76,0.01,-0.06,1.07
764,0.47,0.78,1.21,0.00,-0.06,1.07
765,0.53,0.52,0.92,-0.00,-0.07,1.07
766,0.21,0.52,1.04,0.00,-0.06,1.06
767,-0.11,0.06,1.22,0.01,-0.06,1.07
768,-0.18,-0.23,1.07,0.01,-0.06,1.07
769,-0.09,0.24,1.19,0.00,-0.06,1.07
770,-0.09,0.32,1.34,0.01,-0.06,1.06
771,-0.17,-0.05,0.76,0.01,-0.06,1.07
772,0.09,0.14,1.13,0.00,-0.07,1.07
773,-0.27,0.37,1.25,0.02,-0.06,1.07
774,-0.27,0.18,0.95,0.01,-0.07,1.06
775,-0.26,-0.05,0.92,0.01,-0.07,1.07
776,-0.24,0.12,0.53,0.01,-0.07,1.06
777,-0.69,-0.08,0.32,0.01,-0.06,1.07
778,-0.89,-0.11,-0.05,0.02,-0.07,1.07
779,-0.75,0.47,0.32,0.02,-0.07,1.06
780,-0.29,0.32,0.76,0.01,-0.06,1.06
781,-0.18,0.31,0.61,0.01,-0.06,1.06
782,-0.17,0.35,0.44,0.01,-0.07,1.06
783,-0.32,0.31,0.79,0.01,-0.06,1.06
784,0.06,0.60,1.05,0.01,-0.06,1.06
785,0.27,0.47,1.10,0.01,-0.06,1.07
786,0.46,0.34,1.62,0.01,-0.06,1.06
787,0.41,0.76,1.56,0.02,-0.06,1.07
788,0.21,0.49,1.19,0.01,-0.07,1.08
789,0.17,0.29,1.19,0.01,-0.06,1.07
790,0.09,0.49,1.60,0.01,-0.06,1.07
791,-0.17,0.55,0.78,0.01,-0.06,1.06
792,-0.41,0.02,0.43,0.01,-0.07,1.07
793,-0.18,0.20,0.69,0.02,-0.07,1.07
794,-0.56,0.37,0.20,0.01,-0.06,1.07
795,-0.44,0.09,-0.12,0.01,-0.06,1.06
796,-0.26,0.55,0.41,0.01,-0.07,1.07
797,-0.18,0.31,0.63,0.01,-0.07,1.07
798,-0.29,0.20,0.12,0.01,-0.06,1.07
799,-0.20,0.47,0.17,0.01,-0.07,1.06
800,0.44,0.73,1.11,0.01,-0.07,1.07
801,0.99,0.66,1.53,0.01,-0.06,1.06
802,0.85,0.50,0.99,0.01,-0.07,1.06
803,0.20,0.66,0.70,0.01,-0.06,1.07
804,-0.44,0.85,0.63,0.01,-0.06,1.06
805,-0.24,0.37,0.26,0.00,-0.06,1.07
806,-0.34,0.61,0.27,0.01,-0.06,1.07
807,-0.40,0.60,0.44,0.00,-0.06,1.07
808,0.05,0.50,0.52,0.01,-0.07,1.06
809,0.12,0.29,1.10,0.01,-0.07,1.07
810,0.15,0.40,1.30,0.01,-0.06,1.06
811,-0.21,0.29,1.18,0.01,-0.06,1.07
812,-0.35,0.08,0.76,0.01,-0.06,1.07
813,-0.31,0.21,1.22,0.01,-0.06,1.07
814,0.05,0.47,1.19,0.01,-0.07,1.06
815,-0.32,0.12,0.64,0.01,-0.06,1.06
816,-0.58,0.29,0.66,0.01,-0.07,1.06
817,-0.69,0.38,0.89,0.01,-0.07,1.07
818,-0.20,0.35,0.70,0.01,-0.06,1.07
819,0.00,0.29,0.66,0.01,-0.07,1.07
820,0.24,0.64,1.30,0.01,-0.07,1.07
821,0.11,0.60,1.08,0.01,-0.06,1.06
822,-0.05,0.24,0.56,0.01,-0.06,1.06
823,0.18,0.44,1.15,0.01,-0.07,1.07
824,0.05,0.40,0.98,0.01,-0.06,1.07
825,0.14,0.12,0.66,0.01,-0.07,1.07
826,-0.11,0.23,0.31,0.01,-0.07,1.07
827,-0.34,0.06,0.61,0.01,-0.07,1.07
828,-0.29,-0.02,0.64,0.00,-0.06,1.06
829,-0.08,0.18,0.55,0.01,-0.07,1.07
830,0.06,0.41,0.61,0.01,-0.06,1.06
831,-0.24,0.32,0.75,0.01,-0.06,1.06
832,-0.27,0.09,0.72,0.00,-0.07,1.06
833,-0.43,0.15,0.76,0.01,-0.07,1.06
834,-0.38,0.37,1.04,0.01,-0.06,1.06
835,-0.05,-0.02,0.90,0.01,-0.06,1.07
836,-0.11,0.03,0.37,0.01,-0.07,1.06
837,-0.14,0.53,0.96,0.01,-0.07,1.06
838,-0.23,0.21,0.99,0.01,-0.06,1.07
839,0.20,0.17,0.73,0.01,-0.07,1.06
840,0.55,0.47,1.44,0.01,-0.07,1.06
841,1.07,0.34,1.71,0.01,-0.07,1.07
842,0.95,0.32,0.99,0.01,-0.07,1.07
843,0.55,-0.05,0.76,0.01,-0.07,1.07
844,0.66,0.20,1.66,0.01,-0.07,1.06
845,0.63,0.38,1.42,0.01,-0.06,1.06
846,0.23,0.14,0.95,0.01,-0.06,1.07
847,-0.35,0.26,0.79,0.02,-0.06,1.06
848,-0.29,0.12,0.87,0.01,-0.06,1.06
849,-0.32,0.21,0.24,0.01,-0.07,1.07
850,-0.26,0.02,0.43,0.01,-0.07,1.08
851,0.08,0.66,0.66,0.01,-0.07,1.07
852,0.38,0.32,0.75,0.01,-0.07,1.07
853,0.37,0.14,0.52,0.02,-0.06,1.08
854,-0.23,0.15,0.40,0.01,-0.06,1.07
855,-0.18,0.34,0.63,0.01,-0.07,1.06
856,0.21,0.03,0.37,0.01,-0.07,1.06
857,0.32,0.31,0.73,0.00,-0.07,1.07
858,0.31,0.17,0.64,0.01,-0.06,1.06
859,0.05,-0.09,0.69,0.01,-0.06,1.06
860,0.18,0.03,1.05,0.00,-0.07,1.07
861,0.11,0.31,1.51,0.01,-0.07,1.06
862,0.46,0.35,0.90,0.01,-0.06,1.07
863,0.38,0.31,1.33,0.01,-0.07,1.07
864,0.56,0.21,1.73,0.01,-0.07,1.06
865,0.31,0.18,1.69,0.01,-0.07,1.07
866,0.40,-0.32,1.10,0.01,-0.07,1.07
867,0.21,-0.11,0.89,0.00,-0.07,1.08
868,-0.06,0.12,1.16,0.01,-0.06,1.07
869,0.11,0.18,1.11,0.01,-0.06,1.06
870,0.75,0.50,1.33,0.01,-0.07,1.06
871,0.60,0.72,1.24,0.01,-0.07,1.07
872,0.06,0.53,0.72,0.00,-0.07,1.07
873,-0.14,-0.11,0.67,0.01,-0.06,1.07
874,0.18,0.14,1.21,0.00,-0.06,1.06
875,0.53,0.15,1.48,0.01,-0.05,1.06
876,0.03,-0.06,1.21,0.01,-0.06,1.06
877,-0.43,-0.40,0.79,0.01,-0.07,1.07
878,-0.52,-0.46,1.21,0.02,-0.07,1.07
879,-0.29,-0.58,1.31,0.02,-0.06,1.06
880,-0.34,-0.50,0.69,0.01,-0.07,1.07
881,-0.35,-0.24,1.07,0.02,-0.06,1.06
882,-0.40,0.14,1.08,0.02,-0.07,1.06
883,-0.09,0.03,0.96,0.02,-0.07,1.07
884,0.41,0.44,1.24,0.02,-0.08,1.07
885,0.70,0.52,1.73,0.02,-0.07,1.06
886,0.90,0.50,1.48,0.01,-0.07,1.06
887,0.81,0.70,1.21,0.01,-0.07,1.07
888,0.17,0.41,0.84,0.01,-0.06,1.07
889,-0.29,0.72,0.55,0.02,-0.06,1.07
890,-0.15,0.99,0.50,0.01,-0.07,1.06
891,0.50,1.27,1.11,0.01,-0.06,1.06
892,0.53,1.51,1.48,0.01,-0.06,1.06
893,0.52,1.16,1.15,0.00,-0.07,1.07
894,0.44,0.64,0.81,0.00,-0.07,1.07
895,-0.24,0.50,0.79,0.00,-0.07,1.07
896,-0.26,0.09,0.96,-0.00,-0.06,1.07
897,0.34,-0.26,1.08,-0.00,-0.07,1.07
898,0.06,-0.02,1.01,0.01,-0.07,1.07
899,-0.03,-0.08,1.15,0.01,-0.07,1.06
900,0.21,-0.03,1.04,0.01,-0.07,1.07
901,0.08,0.11,1.01,0.01,-0.07,1.06
902,-0.23,0.32,1.39,0.01,-0.07,1.07
903,0.09,0.21,1.07,0.01,-0.06,1.07
904,-0.18,0.24,0.52,0.01,-0.07,1.07
905,-0.34,0.50,0.90,0.01,-0.06,1.06
906,-0.20,0.17,1.10,0.01,-0.07,1.06
907,0.09,0.12,0.76,0.01,-0.07,1.07
908,-0.09,0.47,0.75,0.01,-0.07,1.06
909,-0.38,0.50,0.78,0.02,-0.07,1.07
910,-0.24,0.14,0.18,0.01,-0.06,1.07
911,-0.11,-0.09,0.44,0.01,-0.06,1.06
912,0.29,0.53,1.48,0.01,-0.06,1.07
913,0.63,0.58,1.62,0.01,-0.06,1.06
914,0.70,0.37,1.76,0.01,-0.07,1.07
915,0.60,0.52,1.45,0.01,-0.07,1.07
916,0.12,0.56,1.66,0.00,-0.06,1.06
917,0.00,0.24,1.01,0.01,-0.07,1.07
918,-0.05,0.00,1.07,0.00,-0.07,1.07
919,0.06,0.37,1.62,0.01,-0.07,1.07
920,0.26,-0.14,1.13,0.02,-0.07,1.06
921,-0.08,0.24,1.01,0.01,-0.07,1.07
922,-0.44,0.29,1.02,0.01,-0.07,1.06
923,-0.52,0.29,1.07,0.01,-0.07,1.07
924,-0.69,0.17,0.32,0.01,-0.06,1.07
925,-0.43,0.27,0.58,0.01,-0.07,1.07
926,-0.21,0.56,0.98,0.01,-0.06,1.06
927,-0.02,0.26,0.31,0.02,-0.07,1.07
928,0.06,0.82,0.41,0.02,-0.07,1.06
929,0.17,1.13,1.36,0.01,-0.07,1.06
930,0.11,0.95,0.90,0.01,-0.06,1.06
931,0.50,0.61,0.73,0.01,-0.07,1.07
932,0.60,1.04,1.27,0.01,-0.08,1.07
933,0.46,0.66,1.45,0.00,-0.06,1.08
934,0.53,0.26,1.04,0.01,-0.06,1.06
935,0.27,0.23,0.99,0.01,-0.07,1.06
936,0.05,0.60,1.31,0.01,-0.06,1.06
937,0.11,0.47,1.08,0.01,-0.06,1.07
938,0.18,0.20,1.11,0.01,-0.07,1.06
939,0.40,0.44,1.47,0.00,-0.07,1.06
940,0.20,0.47,1.57,0.01,-0.06,1.07
941,0.05,-0.08,1.04,0.00,-0.07,1.07
942,-0.18,-0.02,0.50,0.01,-0.07,1.07
943,-0.73,0.34,0.64,0.01,-0.07,1.06
944,-0.37,-0.12,0.43,0.01,-0.07,1.06
945,0.20,-0.20,0.87,0.01,-0.08,1.07
946,0.56,0.37,1.33,0.01,-0.07,1.06
947,0.08,0.34,0.61,0.01,-0.08,1.06
948,-0.27,0.14,-0.14,0.01,-0.07,1.06
949,-0.92,0.32,0.12,0.01,-0.07,1.07
950,-0.93,0.53,-0.14,0.02,-0.06,1.08
951,-0.44,0.37,-0.02,0.01,-0.06,1.07
952,0.31,0.47,0.43,0.01,-0.07,1.06
953,0.31,0.95,0.63,0.01,-0.07,1.06
954,-0.34,0.50,0.46,0.01,-0.06,1.07
955,-0.44,0.18,-0.15,0.01,-0.07,1.07
956,-0.72,0.29,-0.20,0.01,-0.07,1.07
957,-0.79,0.12,0.11,0.01,-0.06,1.07
958,-0.34,0.32,0.76,0.01,-0.07,1.07
959,0.58,0.52,1.66,0.01,-0.07,1.06
960,0.55,0.75,1.77,0.01,-0.07,1.07
961,0.46,0.46,1.33,0.01,-0.06,1.06
962,0.61,0.37,1.42,0.01,-0.07,1.06
963,0.52,0.63,1.56,0.01,-0.07,1.07
964,0.37,0.40,0.93,0.00,-0.07,1.06
965,0.09,0.14,0.64,0.01,-0.07,1.06
966,0.06,0.29,0.82,0.01,-0.07,1.06
967,-0.26,0.38,0.60,0.01,-0.06,1.05
968,-0.09,0.26,0.27,0.01,-0.07,1.06
969,-0.18,-0.02,0.29,0.01,-0.07,1.07
970,0.05,0.15,1.18,0.01,-0.06,1.07
971,0.32,-0.15,0.78,0.01,-0.06,1.06
972,0.08,-0.24,0.17,0.01,-0.07,1.07
973,-0.47,-0.15,0.49,0.01,-0.07,1.06
974,-0.89,0.02,0.03,0.01,-0.07,1.06
975,-0.46,0.15,-0.02,0.02,-0.08,1.07
976,-0.09,0.38,0.23,0.02,-0.08,1.06
977,-0.24,0.72,-0.17,0.01,-0.08,1.07
978,-0.84,0.06,-0.93,0.01,-0.07,1.07
979,-1.24,-0.14,-1.25,0.01,-0.07,1.07
980,-1.94,0.24,-1.19,0.01,-0.07,1.06
981,-2.11,0.26,-1.98,0.01,-0.06,1.06
982,-2.11,0.26,-2.38,0.01,-0.07,1.07
983,-1.54,0.08,-2.29,0.00,-0.07,1.07
984,-0.79,0.06,-0.95,0.01,-0.07,1.07
985,-0.27,0.17,-0.14,0.01,-0.07,1.07
986,0.08,0.32,0.56,0.01,-0.07,1.06
987,-0.15,0.55,0.95,0.01,-0.07,1.05
988,0.00,0.47,0.64,0.02,-0.07,1.07
989,0.27,0.27,0.12,0.00,-0.07,1.07
990,0.20,0.17,0.93,-0.00,-0.07,1.07
991,0.17,0.52,1.15,0.01,-0.06,1.06
992,-0.15,0.03,0.26,0.02,-0.06,1.07
993,0.12,0.63,1.21,0.01,-0.07,1.06
994,0.37,0.63,1.07,0.01,-0.08,1.07
995,0.70,0.15,0.47,0.01,-0.07,1.07
996,0.14,-0.17,0.73,0.01,-0.07,1.06
997,0.11,0.15,0.99,0.02,-0.06,1.06
998,-0.03,0.70,0.69,0.02,-0.07,1.05
999,-0.12,0.56,-0.05,0.01,-0.07,1.07
1000,0.09,0.61,0.72,0.01,-0.07,1.07
1001,-0.27,0.56,1.01,0.01,-0.06,1.06
1002,0.05,-0.06,0.84,0.01,-0.07,1.08
1003,0.18,-0.02,1.50,0.01,-0.07,1.07
1004,0.14,0.20,1.97,0.01,-0.07,1.07
1005,0.41,0.12,2.12,0.01,-0.07,1.06
1006,0.26,0.27,2.20,0.02,-0.07,1.05
1007,0.43,1.13,2.37,0.02,-0.07,1.06
1008,0.40,1.37,2.50,0.02,-0.07,1.08
1009,1.16,1.18,2.24,0.01,-0.08,1.07
1010,1.15,0.73,2.09,0.01,-0.08,1.07
1011,0.53,0.79,1.80,0.01,-0.07,1.07
1012,0.11,0.66,1.13,0.01,-0.07,1.06
1013,0.00,0.89,1.11,0.01,-0.07,1.06
1014,0.12,1.36,1.54,0.01,-0.07,1.06
