,gyro_x,gyro_y,gyro_z,acce_x,acce_y,acce_z
0,0.50,-1.69,-0.31,0.03,-0.09,1.06
1,1.11,-1.59,-0.02,0.02,-0.09,1.06
2,0.69,-1.13,0.11,0.03,-0.09,1.05
3,0.31,-0.37,-0.81,0.03,-0.09,1.06
4,0.58,-0.05,-1.11,0.03,-0.09,1.06
5,0.47,-0.03,-0.73,0.02,-0.09,1.06
6,1.01,0.38,-0.52,0.03,-0.09,1.06
7,1.66,0.03,-0.98,0.01,-0.10,1.06
8,1.33,-0.20,-1.13,0.01,-0.09,1.07
9,0.72,-0.63,-1.33,0.01,-0.09,1.07
10,0.81,-0.63,-1.69,0.01,-0.09,1.06
11,0.95,-0.23,-0.79,0.02,-0.08,1.06
12,1.44,0.11,0.11,0.02,-0.09,1.06
13,2.08,0.08,-0.14,0.01,-0.08,1.06
14,2.05,0.21,-0.38,0.01,-0.09,1.06
15,1.59,-0.05,-0.38,0.01,-0.09,1.06
16,1.37,-0.52,-0.82,0.01,-0.08,1.07
17,1.45,-0.93,-0.73,-0.00,-0.08,1.07
18,1.11,-0.82,-0.61,0.00,-0.08,1.07
19,0.53,-0.82,-1.21,0.02,-0.07,1.06
20,0.60,-1.27,-1.53,0.01,-0.09,1.06
21,0.23,-0.58,-1.10,0.02,-0.08,1.07
22,-0.06,-0.46,-1.76,0.02,-0.08,1.07
23,0.05,-0.05,-2.06,0.02,-0.09,1.06
24,1.02,-0.41,-1.79,0.03,-0.08,1.07
25,1.53,-0.82,-1.37,0.02,-0.08,1.07
26,1.15,-1.08,-1.51,0.03,-0.08,1.06
27,0.26,-0.46,-1.51,0.02,-0.09,1.07
28,-0.21,-0.24,-1.36,0.02,-0.08,1.07
29,-0.17,-0.08,-1.45,0.02,-0.08,1.07
30,0.73,-0.14,-1.36,0.02,-0.09,1.06
31,0.18,0.81,-0.63,0.02,-0.07,1.05
32,3.28,-1.25,-0.96,0.03,-0.09,1.07
33,2.92,-1.30,1.13,0.02,-0.08,1.05
34,0.73,0.70,0.81,0.02,-0.09,1.04
35,0.43,1.19,-0.34,0.02,-0.09,1.07
36,0.17,1.71,-0.82,0.01,-0.09,1.06
37,1.16,0.09,0.32,0.02,-0.09,1.08
38,0.53,-0.32,0.75,0.01,-0.08,1.07
39,-0.21,0.26,0.15,0.01,-0.08,1.06
40,-0.52,-0.17,0.23,0.01,-0.09,1.07
41,-0.63,0.46,0.46,0.01,-0.09,1.06
42,0.18,0.63,0.63,0.01,-0.08,1.06
43,0.93,0.09,0.87,0.01,-0.08,1.06
44,1.11,0.11,1.01,0.01,-0.09,1.06
45,1.16,0.08,0.98,0.01,-0.09,1.07
46,1.48,-0.08,0.35,0.01,-0.09,1.07
47,1.22,-0.24,0.69,0.01,-0.08,1.07
48,1.66,-0.29,0.92,0.02,-0.07,1.06
49,1.60,-0.43,0.50,0.01,-0.07,1.06
50,0.73,-0.40,0.61,0.02,-0.07,1.07
51,-0.21,0.09,0.43,0.02,-0.07,1.06
52,-0.43,0.08,0.27,0.03,-0.07,1.06
53,-0.31,0.05,0.53,0.03,-0.08,1.06
54,-0.09,-0.26,0.78,0.02,-0.08,1.06
55,-0.12,0.15,0.64,0.02,-0.08,1.07
56,0.29,-0.20,1.11,0.03,-0.09,1.06
57,0.73,0.08,1.71,0.03,-0.08,1.06
58,1.24,0.73,1.25,0.03,-0.09,1.06
59,1.40,1.28,0.66,0.03,-0.09,1.05
60,1.34,1.28,0.64,0.03,-0.09,1.07
61,1.28,1.42,0.90,0.03,-0.08,1.06
62,1.69,1.51,0.24,0.02,-0.09,1.07
63,1.88,1.59,0.43,0.03,-0.09,1.06
64,-1.24,-0.11,0.56,0.02,-0.09,1.07
65,-2.93,6.21,-0.84,0.02,-0.09,1.05
66,-0.82,2.29,-0.52,0.01,-0.09,1.09
67,0.20,-1.01,1.44,0.00,-0.08,1.07
68,1.13,-1.11,1.10,0.02,-0.08,1.06
69,1.01,1.28,0.72,0.02,-0.09,1.06
70,-0.12,1.65,1.51,0.01,-0.08,1.06
71,-1.76,0.96,1.69,0.01,-0.07,1.06
72,-1.27,0.46,1.25,0.01,-0.08,1.06
73,0.12,-0.18,1.69,0.02,-0.08,1.07
74,0.15,-0.92,1.89,0.01,-0.07,1.05
75,-0.81,0.38,1.45,0.02,-0.08,1.06
76,-2.17,0.18,1.25,0.02,-0.09,1.07
77,-3.22,-0.03,1.21,0.02,-0.08,1.07
78,-3.18,0.27,1.30,0.02,-0.09,1.07
79,-3.80,0.24,1.04,0.03,-0.08,1.05
80,-3.56,1.92,0.67,0.03,-0.09,1.06
81,-3.19,2.72,0.96,0.03,-0.09,1.06
82,-2.50,1.65,0.61,0.03,-0.09,1.06
83,-1.82,3.51,0.99,0.03,-0.10,1.10
84,0.14,-1.62,1.39,0.02,-0.09,1.07
85,2.84,2.49,0.63,0.02,-0.10,1.05
86,4.53,2.79,0.99,0.02,-0.10,1.07
87,4.31,1.16,3.53,0.01,-0.13,1.08
88,-7.53,-0.99,-6.84,-0.02,-0.05,1.08
89,-7.57,-1.59,-1.92,0.02,-0.09,1.05
90,-1.91,1.39,1.71,0.04,-0.09,1.04
91,1.91,2.89,0.61,0.03,-0.08,1.05
92,3.05,2.60,0.69,0.01,-0.09,1.06
93,1.24,2.52,2.32,0.01,-0.09,1.07
94,-1.08,0.27,1.15,-0.02,-0.09,1.09
95,-3.69,-1.57,-1.13,-0.01,-0.09,1.09
96,-3.71,-0.73,-0.27,0.01,-0.08,1.07
97,0.18,-0.20,3.07,0.01,-0.08,1.06
98,2.82,1.59,4.38,0.02,-0.08,1.05
99,1.54,1.94,3.53,0.01,-0.08,1.05
100,-0.40,1.37,3.36,-0.00,-0.08,1.07
101,-0.46,0.44,3.18,-0.00,-0.08,1.07
102,-0.55,-0.31,2.92,-0.01,-0.09,1.08
103,-0.99,-0.76,2.02,0.00,-0.08,1.08
104,-1.37,-0.79,2.08,0.00,-0.08,1.08
105,-0.79,-1.50,2.40,0.01,-0.08,1.06
106,-1.25,-1.66,2.38,0.01,-0.08,1.07
107,-1.42,-1.56,2.32,0.02,-0.08,1.06
108,-1.25,-1.44,2.66,0.02,-0.09,1.06
109,-1.44,-1.13,2.49,0.03,-0.08,1.06
110,-2.02,-1.13,2.18,0.04,-0.08,1.06
111,-1.45,-0.61,2.00,0.04,-0.09,1.07
112,-0.82,0.05,2.24,0.05,-0.09,1.06
113,-0.23,0.70,2.32,0.04,-0.09,1.06
114,-0.38,0.98,1.97,0.05,-0.09,1.06
115,-0.55,1.57,1.74,0.04,-0.09,1.07
116,-0.38,2.02,1.79,0.04,-0.09,1.06
117,-0.02,2.69,1.71,0.05,-0.09,1.06
118,0.21,3.31,1.85,0.04,-0.09,1.05
119,-0.06,3.83,1.76,0.03,-0.09,1.06
120,0.14,3.86,1.63,0.02,-0.09,1.06
121,0.20,2.72,2.05,0.01,-0.09,1.08
122,-1.45,2.84,-0.05,0.01,-0.08,1.08
123,-0.60,2.52,1.68,0.01,-0.09,1.06
124,0.63,2.93,2.41,0.00,-0.08,1.06
125,0.90,2.79,2.75,0.01,-0.08,1.06
126,-0.38,2.35,1.85,-0.00,-0.09,1.07
127,-0.75,1.80,1.63,0.00,-0.09,1.06
128,-0.78,1.60,2.06,-0.00,-0.09,1.07
129,-1.16,1.36,1.48,-0.01,-0.09,1.07
130,-2.20,0.98,0.20,-0.00,-0.07,1.07
131,-0.79,0.84,2.46,0.01,-0.08,1.06
132,0.02,1.40,3.44,0.00,-0.08,1.06
133,-0.69,0.99,2.37,-0.01,-0.08,1.07
134,-0.73,0.05,1.95,-0.00,-0.09,1.07
135,-1.37,0.23,2.14,0.00,-0.10,1.07
136,-2.40,-0.55,0.92,0.00,-0.09,1.07
137,-1.97,-1.05,0.67,0.02,-0.09,1.07
138,-1.76,-0.38,1.48,0.01,-0.09,1.06
139,-0.79,0.26,2.70,0.02,-0.09,1.06
140,-0.14,0.78,2.79,0.02,-0.10,1.05
141,-0.09,1.01,2.14,0.02,-0.10,1.06
142,-0.23,0.63,2.90,0.01,-0.10,1.07
143,-0.06,0.73,2.73,0.02,-0.10,1.06
144,0.20,1.18,2.60,0.02,-0.10,1.06
145,0.12,1.28,2.81,0.02,-0.10,1.06
146,-0.27,1.68,2.29,0.02,-0.10,1.07
147,-0.41,1.80,1.80,0.01,-0.11,1.07
148,-0.20,1.63,2.12,0.01,-0.10,1.06
149,-0.35,1.53,2.29,0.01,-0.09,1.07
150,-0.20,1.62,1.95,0.00,-0.10,1.06
151,-0.02,1.62,1.59,0.00,-0.10,1.07
152,-0.75,1.18,1.66,0.00,-0.09,1.06
153,-0.49,1.01,1.50,-0.00,-0.09,1.07
154,-0.02,0.95,1.85,0.00,-0.09,1.06
155,-0.15,0.72,2.09,0.00,-0.09,1.07
156,-0.70,0.79,1.45,0.01,-0.10,1.07
157,-0.35,0.47,1.54,0.00,-0.10,1.06
158,-0.35,0.41,1.69,0.01,-0.10,1.07
159,-0.40,0.63,1.50,0.01,-0.09,1.07
160,-0.31,0.58,1.11,0.01,-0.10,1.07
161,-0.20,0.27,1.24,0.01,-0.09,1.07
162,0.12,0.26,1.89,0.02,-0.10,1.06
163,0.50,0.47,2.00,0.01,-0.09,1.06
164,0.63,0.43,2.26,0.00,-0.09,1.07
165,0.35,0.17,1.51,0.01,-0.09,1.07
166,-0.17,0.20,1.08,0.01,-0.09,1.06
167,-0.05,-0.09,1.30,0.01,-0.10,1.06
168,-0.17,0.34,1.68,0.02,-0.09,1.06
169,-0.37,0.23,1.22,0.01,-0.09,1.06
170,-0.15,0.24,0.89,0.01,-0.09,1.06
171,-0.03,0.50,1.27,0.01,-0.09,1.06
172,-0.58,0.67,0.95,0.02,-0.09,1.06
173,-0.32,0.52,0.66,0.01,-0.09,1.06
174,-0.35,0.64,0.96,0.01,-0.10,1.06
175,0.09,0.64,1.80,0.02,-0.10,1.06
176,0.70,0.50,1.65,0.01,-0.09,1.07
177,0.70,0.63,1.80,0.00,-0.09,1.06
178,0.69,0.89,1.65,0.01,-0.09,1.07
179,0.78,0.69,1.56,0.01,-0.10,1.07
180,0.69,0.46,1.24,0.00,-0.09,1.07
181,-0.03,0.29,1.27,0.01,-0.09,1.07
182,-0.29,0.26,0.90,0.00,-0.09,1.07
183,0.12,0.06,0.69,0.01,-0.09,1.07
184,-0.38,0.23,0.96,0.01,-0.09,1.06
185,-0.46,0.21,0.85,0.01,-0.08,1.06
186,-0.15,0.23,1.13,0.01,-0.09,1.06
187,-0.11,0.21,1.18,0.01,-0.09,1.06
188,-0.50,0.18,0.96,0.01,-0.09,1.06
189,-0.47,0.35,0.31,0.01,-0.09,1.08
190,0.08,0.27,1.11,0.01,-0.10,1.07
191,0.17,0.09,0.99,0.01,-0.10,1.07
192,0.35,-0.32,0.46,0.01,-0.10,1.07
193,0.08,-0.34,0.75,0.01,-0.09,1.07
194,0.11,-0.08,1.40,0.01,-0.09,1.06
195,0.08,-0.12,1.54,0.02,-0.09,1.06
196,0.84,0.14,1.59,0.02,-0.09,1.06
197,0.93,0.06,2.05,0.02,-0.09,1.06
198,0.31,0.47,1.66,0.01,-0.10,1.06
199,0.35,0.43,1.36,0.02,-0.10,1.07
200,0.55,0.32,1.59,0.01,-0.10,1.06
201,0.23,0.56,1.48,0.01,-0.10,1.06
202,0.32,0.66,0.69,0.01,-0.10,1.07
203,0.47,0.41,0.79,0.01,-0.09,1.07
204,-0.11,0.05,1.21,0.01,-0.09,1.06
205,0.03,0.26,0.70,0.02,-0.09,1.06
206,0.17,0.44,0.87,0.01,-0.09,1.06
207,0.12,0.18,1.13,0.01,-0.09,1.07
208,0.12,0.58,0.63,0.01,-0.09,1.06
209,-0.08,0.31,0.29,0.01,-0.09,1.06
210,0.17,0.08,0.75,0.01,-0.10,1.06
211,0.11,0.14,1.19,0.02,-0.09,1.06
212,0.79,0.38,1.51,0.01,-0.09,1.06
213,0.98,0.60,1.73,0.01,-0.09,1.06
214,0.38,0.41,1.51,0.00,-0.09,1.06
215,0.41,0.06,1.33,0.01,-0.09,1.08
216,0.87,-0.31,1.76,0.00,-0.10,1.07
217,0.37,-0.56,1.97,0.01,-0.09,1.07
218,-0.09,-0.67,1.04,0.01,-0.09,1.06
219,-0.32,-0.52,0.56,0.01,-0.10,1.07
220,-0.31,-0.50,0.75,0.01,-0.09,1.06
221,0.00,-0.06,1.15,0.02,-0.10,1.06
222,0.52,-0.11,0.87,0.01,-0.09,1.06
223,0.37,0.23,1.31,0.02,-0.09,1.07
224,0.09,0.20,1.24,0.02,-0.08,1.07
225,0.56,0.41,0.69,0.02,-0.09,1.07
226,0.53,0.24,0.93,0.02,-0.09,1.05
227,0.31,0.24,1.68,0.02,-0.09,1.06
228,0.89,1.05,1.76,0.02,-0.09,1.06
229,1.08,1.08,1.60,0.01,-0.10,1.06
230,0.37,1.21,1.60,0.01,-0.08,1.07
231,0.37,1.08,1.27,0.00,-0.09,1.07
232,0.92,0.89,1.13,0.00,-0.09,1.07
233,0.29,0.37,1.24,-0.00,-0.10,1.07
234,-0.03,0.20,0.87,0.00,-0.09,1.07
235,0.15,0.05,0.78,0.00,-0.09,1.07
236,0.15,-0.12,0.73,0.01,-0.09,1.06
237,0.24,0.37,1.30,0.01,-0.09,1.05
238,0.27,0.26,1.01,0.01,-0.09,1.06
239,0.49,0.17,0.85,0.01,-0.09,1.06
240,0.02,0.06,1.05,0.00,-0.09,1.07
241,-0.56,-0.08,0.46,0.01,-0.09,1.07
242,-0.82,0.03,0.05,0.01,-0.09,1.07
243,-0.75,-0.06,0.58,0.01,-0.09,1.06
244,-0.55,0.03,0.20,0.02,-0.09,1.07
245,-0.24,0.18,0.06,0.02,-0.09,1.06
246,0.09,0.73,0.70,0.01,-0.09,1.06
247,-0.15,0.79,0.95,0.01,-0.09,1.06
248,-0.03,1.01,0.03,0.01,-0.09,1.06
249,0.58,0.72,1.68,0.01,-0.09,1.06
250,1.22,0.64,2.31,0.01,-0.09,1.06
251,1.33,0.81,1.88,0.01,-0.09,1.07
252,1.11,0.98,1.68,0.00,-0.10,1.07
253,0.26,0.47,1.57,0.00,-0.09,1.06
254,0.31,0.61,1.44,0.01,-0.09,1.07
255,0.50,0.60,1.25,0.01,-0.09,1.06
256,0.49,0.52,1.37,0.01,-0.09,1.06
257,0.23,0.38,1.39,0.01,-0.09,1.06
258,0.15,0.61,1.25,0.01,-0.09,1.07
259,-0.34,0.49,1.04,0.01,-0.09,1.06
260,-0.35,0.05,1.53,0.00,-0.09,1.06
261,-0.11,0.26,1.15,0.01,-0.09,1.07
262,-0.05,0.02,0.73,0.01,-0.10,1.08
263,-0.32,-0.18,1.08,0.01,-0.09,1.05
264,-0.15,-0.17,0.82,0.02,-0.09,1.06
265,-0.03,0.08,0.66,0.02,-0.09,1.06
266,-0.24,0.18,0.96,0.01,-0.09,1.06
267,-0.58,0.40,0.50,0.01,-0.09,1.06
268,-0.21,0.32,0.64,0.02,-0.09,1.07
269,0.27,0.37,1.57,0.01,-0.10,1.07
270,0.44,0.64,2.14,0.01,-0.09,1.06
271,0.61,0.93,1.36,0.01,-0.10,1.07
272,0.43,0.72,1.56,0.01,-0.09,1.07
273,0.14,0.69,2.03,0.01,-0.08,1.05
274,0.24,1.10,1.68,0.02,-0.09,1.06
275,0.64,0.82,1.44,0.01,-0.10,1.06
276,0.78,0.79,1.80,0.01,-0.10,1.07
277,0.49,0.85,0.93,0.01,-0.10,1.07
278,0.12,0.50,0.50,0.01,-0.09,1.07
279,-0.31,0.17,1.04,0.01,-0.09,1.06
280,-0.32,0.24,0.98,0.01,-0.08,1.07
281,0.11,0.00,0.66,0.01,-0.09,1.07
282,0.09,0.11,1.31,0.00,-0.08,1.06
283,0.09,0.60,1.82,0.02,-0.09,1.06
284,0.46,0.58,1.31,0.01,-0.09,1.07
285,0.47,0.35,1.31,0.01,-0.09,1.06
286,0.03,0.53,1.25,0.01,-0.09,1.07
287,-0.17,0.66,0.98,0.01,-0.09,1.06
288,0.06,0.76,0.95,0.00,-0.09,1.06
289,0.03,0.60,1.44,0.01,-0.09,1.06
290,-0.05,0.63,1.31,0.01,-0.09,1.06
291,0.56,0.64,1.13,0.02,-0.09,1.07
292,0.73,0.61,1.50,0.00,-0.09,1.06
293,-0.03,0.58,1.05,0.00,-0.09,1.07
294,0.17,0.58,0.70,0.01,-0.09,1.07
295,0.21,0.41,1.13,0.01,-0.10,1.06
296,0.00,0.32,0.95,0.01,-0.09,1.06
297,-0.26,0.40,0.69,0.01,-0.09,1.06
298,0.03,0.03,0.81,0.01,-0.10,1.07
299,0.47,0.06,1.51,0.01,-0.10,1.06
300,0.20,0.82,1.40,0.01,-0.09,1.05
301,0.66,0.73,1.76,0.01,-0.10,1.05
302,0.56,0.35,1.97,0.01,-0.09,1.06
303,0.44,0.18,1.79,0.01,-0.09,1.07
304,0.15,0.27,1.22,0.00,-0.09,1.07
305,0.46,-0.17,1.59,0.02,-0.09,1.06
306,0.20,0.20,1.82,0.02,-0.09,1.06
307,0.11,0.18,1.16,0.01,-0.09,1.07
308,0.24,-0.08,1.33,0.02,-0.09,1.06
309,0.21,-0.15,1.68,0.02,-0.09,1.06
310,-0.09,0.32,1.18,0.01,-0.09,1.06
311,0.23,0.17,0.73,0.01,-0.10,1.07
312,-0.02,0.17,0.82,0.01,-0.09,1.07
313,0.08,0.12,0.89,0.02,-0.09,1.07
314,0.03,0.32,0.40,0.01,-0.09,1.06
315,0.27,0.03,0.99,0.00,-0.09,1.06
316,-0.24,0.06,0.78,0.01,-0.09,1.06
317,-0.26,0.14,0.79,0.01,-0.09,1.07
318,0.23,0.02,1.33,0.01,-0.09,1.07
319,0.23,-0.31,1.85,0.01,-0.09,1.07
320,0.17,0.06,0.81,0.01,-0.09,1.07
321,-0.32,0.03,0.38,0.02,-0.10,1.07
322,-0.70,-0.15,0.98,0.01,-0.09,1.06
323,-0.09,0.24,1.24,0.02,-0.09,1.06
324,0.41,0.32,0.78,0.01,-0.10,1.06
325,0.53,0.53,1.27,0.01,-0.09,1.07
326,-0.23,0.70,1.21,0.01,-0.09,1.07
327,-0.08,0.64,0.82,0.01,-0.10,1.06
328,0.40,0.73,1.04,0.01,-0.10,1.07
329,0.29,0.78,1.22,0.00,-0.09,1.07
330,0.27,0.58,0.58,0.01,-0.09,1.06
331,-0.18,0.81,0.53,0.01,-0.09,1.07
332,0.09,0.78,1.15,0.01,-0.09,1.05
333,0.02,0.85,0.79,0.00,-0.09,1.07
334,0.26,0.58,0.24,0.01,-0.10,1.07
335,0.37,0.14,1.62,0.00,-0.09,1.07
336,0.21,-0.02,1.69,0.01,-0.09,1.06
337,0.34,0.18,1.27,0.01,-0.09,1.06
338,0.29,0.09,1.74,0.01,-0.09,1.07
339,0.06,0.31,1.63,0.01,-0.08,1.06
340,-0.34,0.21,0.90,0.01,-0.09,1.06
341,-0.08,0.17,0.90,0.01,-0.10,1.05
342,-0.17,0.03,1.30,0.02,-0.10,1.06
343,-0.15,0.03,0.76,0.02,-0.09,1.07
344,-0.06,0.12,0.67,0.02,-0.09,1.07
345,0.24,0.49,1.28,0.02,-0.10,1.06
346,-0.31,0.78,1.13,0.01,-0.09,1.06
347,0.12,0.38,0.55,0.01,-0.09,1.07
348,0.38,0.41,1.31,0.01,-0.09,1.05
349,0.14,0.64,1.39,0.01,-0.09,1.06
350,0.18,0.81,1.15,0.01,-0.09,1.07
351,0.26,0.50,0.84,0.01,-0.09,1.06
352,0.18,0.40,1.02,0.01,-0.08,1.06
353,-0.14,0.50,0.53,0.01,-0.09,1.06
354,-0.02,0.43,0.70,0.00,-0.09,1.06
355,-0.46,0.12,0.82,0.01,-0.09,1.06
356,0.26,0.27,1.51,0.01,-0.09,1.06
357,0.90,0.63,1.57,0.01,-0.10,1.07
358,0.87,0.27,1.76,0.01,-0.09,1.06
359,0.44,0.37,1.74,0.01,-0.10,1.06
360,0.20,0.44,1.08,0.01,-0.09,1.07
361,0.08,-0.03,1.01,0.01,-0.09,1.07
362,-0.06,0.15,1.19,0.02,-0.08,1.06
363,0.06,0.41,1.07,0.02,-0.09,1.06
364,0.43,0.27,1.11,0.01,-0.09,1.06
365,0.14,0.38,1.50,0.01,-0.09,1.06
366,-0.46,0.58,0.89,0.01,-0.09,1.06
367,-0.24,0.35,0.24,0.01,-0.09,1.07
368,-0.47,0.60,0.67,0.00,-0.09,1.06
369,-0.44,0.82,0.50,0.01,-0.09,1.06
370,-0.09,0.72,0.58,0.02,-0.09,1.06
371,-0.18,0.73,0.89,0.01,-0.08,1.06
372,-0.44,0.76,0.99,0.01,-0.09,1.06
373,0.21,0.56,1.11,0.01,-0.09,1.07
374,0.66,0.58,1.62,0.01,-0.09,1.05
375,0.61,0.64,1.37,0.01,-0.10,1.06
376,0.09,0.49,0.60,0.01,-0.09,1.07
377,0.03,0.32,0.61,0.01,-0.10,1.07
378,0.02,0.44,1.21,0.01,-0.09,1.07
379,-0.37,0.43,0.73,0.01,-0.08,1.07
380,0.06,0.56,0.85,0.01,-0.09,1.07
381,0.27,0.32,1.10,0.01,-0.09,1.06
382,0.00,0.29,1.16,0.01,-0.09,1.07
383,0.18,0.08,0.75,-0.00,-0.09,1.06
384,0.03,0.43,0.98,0.01,-0.09,1.07
385,-0.12,0.46,0.99,0.01,-0.09,1.06
386,-0.20,0.76,0.81,0.01,-0.09,1.07
387,0.08,0.27,0.76,0.01,-0.09,1.07
388,-0.03,0.23,1.45,0.01,-0.09,1.05
389,-0.06,0.55,1.08,0.01,-0.09,1.07
390,0.37,0.41,1.04,0.00,-0.09,1.05
391,0.35,0.64,1.33,0.01,-0.10,1.06
392,0.21,0.55,1.57,0.01,-0.09,1.07
393,0.50,0.17,1.07,0.01,-0.10,1.07
394,0.32,0.20,0.98,0.01,-0.09,1.07
395,-0.53,-0.03,0.75,0.01,-0.09,1.06
396,-0.18,0.12,0.11,0.01,-0.09,1.06
397,0.17,0.35,1.05,0.01,-0.09,1.06
398,0.56,0.41,1.77,0.01,-0.09,1.06
399,0.72,0.34,1.66,0.01,-0.09,1.07
400,0.79,0.38,1.33,0.01,-0.09,1.07
401,0.26,0.14,1.40,0.01,-0.09,1.07
402,0.08,0.47,1.16,0.00,-0.09,1.07
403,0.35,0.34,0.81,0.01,-0.09,1.06
404,0.31,0.50,1.42,0.01,-0.09,1.06
405,-0.02,0.41,1.71,0.00,-0.09,1.05
406,0.18,0.63,1.21,0.01,-0.09,1.06
407,0.12,0.76,1.37,0.00,-0.10,1.06
408,-0.15,0.14,1.27,0.00,-0.09,1.06
409,-0.02,0.52,0.93,0.00,-0.09,1.07
410,0.32,0.05,0.98,0.01,-0.09,1.07
411,-0.20,-0.17,1.34,0.01,-0.09,1.07
412,-0.12,0.17,0.89,0.01,-0.09,1.07
413,0.00,0.34,0.73,0.01,-0.09,1.07
414,-0.12,-0.08,0.90,0.02,-0.10,1.06
415,-0.31,0.27,0.79,0.01,-0.09,1.06
416,0.55,0.70,1.22,0.01,-0.09,1.06
417,0.84,-0.12,1.73,0.01,-0.09,1.06
418,0.55,0.35,1.66,0.01,-0.09,1.07
419,0.34,0.53,1.25,0.01,-0.08,1.07
420,0.40,0.08,1.63,0.01,-0.09,1.07
421,0.29,-0.17,1.82,0.01,-0.09,1.06
422,0.24,-0.31,1.34,0.00,-0.09,1.07
423,0.23,-0.52,0.99,0.02,-0.10,1.07
424,-0.17,-0.35,1.11,0.02,-0.09,1.06
425,-0.46,-0.20,0.85,0.01,-0.09,1.06
426,-0.03,0.32,1.04,0.01,-0.09,1.06
427,0.34,0.72,1.60,0.02,-0.10,1.06
428,0.41,0.31,1.22,0.02,-0.10,1.07
429,0.12,0.56,0.37,0.01,-0.09,1.06
430,-0.24,0.56,0.46,0.01,-0.09,1.07
431,-0.55,0.40,0.84,0.01,-0.09,1.06
432,0.15,0.90,0.78,0.01,-0.09,1.06
433,0.49,1.21,0.66,0.01,-0.09,1.07
434,-0.20,1.04,1.10,0.01,-0.09,1.06
435,-0.21,0.73,0.70,0.01,-0.09,1.07
436,0.24,0.85,1.34,0.00,-0.09,1.06
437,0.35,0.84,1.82,0.01,-0.09,1.06
438,0.31,0.47,1.24,-0.00,-0.09,1.07
439,0.29,0.00,1.04,0.01,-0.09,1.07
440,-0.24,-0.18,1.25,0.00,-0.09,1.06
441,-0.15,-0.11,1.25,0.01,-0.09,1.07
442,0.46,0.09,1.24,0.01,-0.09,1.07
443,0.00,-0.14,1.37,0.01,-0.08,1.06
444,-0.14,0.23,0.96,0.01,-0.09,1.06
445,-0.34,0.18,0.31,0.01,-0.09,1.06
446,-0.37,0.00,0.93,0.01,-0.10,1.07
447,-0.67,0.15,0.73,0.01,-0.09,1.06
448,-0.41,0.08,0.40,0.01,-0.08,1.06
449,-0.08,0.15,0.67,0.01,-0.10,1.07
450,-0.41,0.31,1.22,0.02,-0.10,1.06
451,-0.24,0.40,0.99,0.02,-0.10,1.07
452,0.93,0.00,1.42,0.02,-0.10,1.06
453,0.50,0.64,1.89,0.01,-0.10,1.06
454,0.41,0.50,1.36,0.01,-0.09,1.06
455,0.49,0.70,0.63,0.00,-0.09,1.06
456,0.20,0.21,0.99,0.01,-0.10,1.06
457,-0.17,0.14,0.87,0.01,-0.09,1.07
458,0.14,0.12,0.60,0.01,-0.09,1.07
459,0.03,-0.06,0.56,0.01,-0.09,1.06
460,-0.27,-0.27,0.99,0.01,-0.08,1.06
461,0.15,0.15,1.25,0.01,-0.09,1.07
462,0.56,0.31,0.89,0.01,-0.10,1.06
463,-0.08,0.24,0.93,0.01,-0.09,1.07
464,-0.31,-0.08,0.50,0.00,-0.09,1.07
465,-0.02,-0.27,0.76,0.01,-0.09,1.07
466,-0.34,-0.18,1.19,0.01,-0.09,1.06
467,-0.64,0.03,0.72,0.01,-0.09,1.07
468,-0.24,0.00,0.32,0.01,-0.10,1.07
469,-0.27,-0.11,0.87,0.01,-0.09,1.06
470,-0.35,0.37,0.73,0.01,-0.09,1.06
471,-0.31,-0.02,0.52,0.01,-0.09,1.08
472,0.06,0.00,1.04,0.01,-0.10,1.07
473,0.03,0.20,1.34,0.02,-0.09,1.07
474,0.03,0.18,0.89,0.01,-0.10,1.06
475,0.82,0.40,1.66,0.01,-0.09,1.06
476,0.75,0.29,2.21,0.01,-0.09,1.07
477,0.63,0.31,0.99,0.01,-0.09,1.06
478,0.18,0.00,0.67,0.01,-0.09,1.07
479,-0.31,-0.08,0.69,0.01,-0.09,1.07
480,-0.50,0.00,0.63,0.01,-0.09,1.06
481,0.23,0.21,0.87,0.01,-0.10,1.07
482,0.31,0.32,1.25,0.01,-0.09,1.06
483,0.09,0.37,1.04,0.01,-0.09,1.06
484,0.00,0.17,0.81,0.01,-0.09,1.07
485,-0.26,0.15,1.15,0.02,-0.09,1.06
486,0.08,0.46,1.92,0.02,-0.09,1.06
487,0.55,0.11,1.57,0.01,-0.10,1.07
488,0.67,0.26,1.15,0.01,-0.10,1.07
489,-0.09,0.14,0.92,0.01,-0.10,1.06
490,-0.89,0.08,0.29,0.01,-0.09,1.06
491,-0.38,0.15,0.43,0.01,-0.10,1.06
492,0.09,0.66,1.34,0.01,-0.09,1.05
493,0.03,0.75,0.50,0.02,-0.09,1.06
494,0.11,0.56,0.03,0.01,-0.10,1.07
495,-0.38,0.35,0.56,0.00,-0.09,1.07
496,-0.31,0.05,0.55,0.01,-0.09,1.07
497,0.24,0.12,0.40,0.01,-0.09,1.07
498,0.69,0.24,1.24,0.00,-0.09,1.07
499,0.34,0.50,1.69,0.01,-0.08,1.06
500,0.38,0.69,1.25,0.01,-0.09,1.07
501,0.53,0.23,1.27,0.01,-0.09,1.06
502,0.20,0.31,1.30,0.01,-0.09,1.06
503,0.17,0.43,1.30,0.02,-0.09,1.06
504,0.41,0.27,0.99,0.01,-0.10,1.06
505,0.38,0.05,1.39,0.01,-0.10,1.06
506,-0.03,0.32,1.05,0.01,-0.10,1.07
507,-0.17,0.29,0.26,0.01,-0.09,1.07
508,-0.17,0.14,0.82,0.01,-0.10,1.07
509,-0.41,0.05,0.82,0.02,-0.09,1.06
510,0.31,0.24,0.75,0.01,-0.09,1.06
511,0.63,0.47,1.25,0.01,-0.09,1.05
512,0.12,0.58,1.59,0.01,-0.09,1.06
513,0.00,0.50,0.73,0.01,-0.09,1.07
514,0.20,0.50,0.75,0.01,-0.10,1.07
515,-0.17,0.38,1.05,0.00,-0.09,1.06
516,-0.35,0.56,0.69,0.01,-0.09,1.05
517,0.29,0.61,0.72,0.01,-0.09,1.06
518,0.76,0.66,1.50,0.01,-0.11,1.06
519,0.41,0.72,1.56,0.02,-0.10,1.07
520,0.56,0.49,0.98,0.01,-0.10,1.06
521,0.58,0.29,0.98,0.01,-0.10,1.06
522,-0.31,0.29,0.72,0.01,-0.09,1.06
523,-0.53,0.47,0.31,0.01,-0.09,1.07
524,0.40,-0.03,0.87,0.01,-0.09,1.07
525,0.40,0.44,1.27,0.01,-0.09,1.06
526,0.11,0.76,0.60,0.01,-0.09,1.06
527,0.34,0.76,0.67,0.01,-0.09,1.05
528,0.18,0.31,1.07,0.01,-0.09,1.06
529,0.06,0.29,0.87,0.00,-0.08,1.06
530,0.35,0.46,0.87,0.00,-0.09,1.07
531,0.17,-0.11,1.30,0.01,-0.09,1.06
532,-0.46,-0.08,1.16,0.01,-0.08,1.07
533,-0.27,-0.23,0.92,0.01,-0.09,1.07
534,-0.06,-0.35,1.37,0.01,-0.10,1.07
535,-0.37,-0.34,1.62,0.02,-0.10,1.07
536,-0.15,-0.47,1.51,0.01,-0.09,1.07
537,0.18,-0.08,1.80,0.02,-0.10,1.06
538,0.35,0.24,2.05,0.02,-0.10,1.05
539,0.46,0.52,1.53,0.02,-0.10,1.06
540,0.89,0.60,1.07,0.02,-0.10,1.07
541,0.32,0.55,1.34,0.02,-0.09,1.06
542,-0.02,0.92,0.84,0.02,-0.09,1.06
543,0.40,0.90,0.66,0.02,-0.10,1.07
544,0.32,1.28,1.34,0.01,-0.10,1.06
545,0.17,1.39,0.95,0.02,-0.10,1.06
546,0.06,1.27,0.38,0.01,-0.09,1.06
547,-0.03,0.99,0.90,-0.00,-0.09,1.07
548,-0.02,0.49,1.33,0.01,-0.08,1.07
549,0.24,0.69,0.84,-0.00,-0.09,1.06
550,0.38,0.49,0.79,0.00,-0.10,1.07
551,-0.06,0.23,1.10,0.00,-0.09,1.08
552,-0.11,0.03,0.87,0.01,-0.09,1.07
553,0.21,-0.11,0.66,0.00,-0.09,1.07
554,0.35,-0.12,1.74,0.00,-0.09,1.06
555,0.35,-0.02,1.60,0.01,-0.09,1.05
556,0.44,0.06,1.18,0.02,-0.09,1.06
557,-0.26,0.14,1.08,0.01,-0.09,1.05
558,-0.73,0.21,0.98,0.02,-0.09,1.07
559,-0.18,0.20,1.07,0.01,-0.10,1.06
560,0.15,0.12,0.96,0.01,-0.10,1.06
561,-0.38,0.52,0.96,0.02,-0.09,1.05
562,-0.20,0.49,0.70,0.01,-0.09,1.06
563,0.26,0.47,1.16,0.02,-0.09,1.06
564,-0.09,0.29,1.31,0.02,-0.10,1.06
565,0.12,0.75,0.95,0.01,-0.09,1.06
566,0.24,0.85,0.95,0.01,-0.09,1.06
567,0.21,0.67,1.28,0.02,-0.09,1.06
568,0.27,0.70,0.79,0.00,-0.09,1.07
569,0.41,0.64,0.46,0.01,-0.09,1.07
570,0.15,0.17,0.64,0.01,-0.09,1.07
571,-0.34,0.15,0.67,0.01,-0.09,1.06
572,-0.43,0.49,0.50,0.01,-0.09,1.07
573,-0.09,0.38,0.60,0.01,-0.09,1.07
574,-0.79,0.26,0.50,0.01,-0.09,1.06
575,-0.47,0.09,0.52,0.01,-0.09,1.07
576,-0.06,-0.26,0.55,0.01,-0.10,1.07
577,-0.14,-0.18,0.95,0.00,-0.09,1.07
578,-0.43,-0.11,0.63,0.01,-0.09,1.05
579,-0.37,-0.11,0.60,0.01,-0.10,1.06
580,-0.18,0.23,1.28,0.02,-0.09,1.06
581,0.15,0.44,1.30,0.02,-0.09,1.06
582,0.32,0.47,1.08,0.02,-0.09,1.07
583,0.29,0.78,1.50,0.02,-0.10,1.06
584,0.31,0.82,1.42,0.01,-0.09,1.07
585,0.61,0.41,1.15,0.01,-0.09,1.07
586,0.76,0.20,1.28,0.01,-0.10,1.07
587,0.47,0.46,1.31,0.01,-0.09,1.06
588,0.41,0.60,1.57,0.01,-0.09,1.06
589,0.92,0.40,1.69,0.02,-0.09,1.06
590,0.55,0.64,1.34,0.01,-0.09,1.06
591,-0.09,0.53,0.67,0.01,-0.09,1.07
592,-0.06,0.67,0.31,0.00,-0.09,1.07
593,-0.05,0.08,1.16,0.01,-0.09,1.08
594,0.24,-0.26,1.74,0.00,-0.09,1.06
595,0.66,-0.05,1.31,0.01,-0.09,1.07
596,0.27,-0.29,1.42,0.01,-0.10,1.07
597,0.00,-0.46,1.34,0.01,-0.09,1.06
598,-0.23,-0.47,0.95,0.01,-0.09,1.06
599,0.00,-0.44,1.36,0.02,-0.09,1.06
600,0.12,-0.23,1.56,0.01,-0.09,1.07
601,0.75,0.23,1.05,0.02,-0.10,1.06
602,0.24,0.08,0.60,0.02,-0.10,1.06
603,-0.26,0.23,0.50,0.01,-0.10,1.07
604,-0.61,0.08,-0.17,0.01,-0.09,1.06
605,-0.58,0.35,-0.43,0.02,-0.10,1.06
606,-0.56,0.50,0.20,0.01,-0.09,1.06
607,-0.11,0.56,-0.18,0.02,-0.10,1.07
608,-0.26,0.67,-0.20,0.01,-0.10,1.06
609,-0.27,0.75,0.41,0.01,-0.09,1.06
610,-0.17,0.82,0.23,0.01,-0.08,1.06
611,0.08,0.40,-0.02,0.01,-0.09,1.07
612,0.47,0.40,0.37,0.01,-0.10,1.07
613,0.53,0.37,1.27,0.01,-0.09,1.06
614,0.67,0.52,1.16,0.01,-0.09,1.06
615,1.07,0.60,1.27,0.01,-0.10,1.06
616,0.55,0.52,1.10,0.01,-0.09,1.05
617,0.53,0.46,0.87,-0.00,-0.09,1.07
618,0.02,-0.03,0.75,-0.00,-0.10,1.07
619,-0.15,-0.02,1.37,0.00,-0.09,1.06
620,0.40,0.09,1.48,0.01,-0.09,1.06
621,0.31,-0.08,1.27,0.01,-0.09,1.06
622,-0.20,0.11,1.27,0.00,-0.09,1.07
623,-0.06,-0.06,1.22,0.02,-0.09,1.07
624,0.15,-0.06,1.08,0.01,-0.10,1.07
625,0.55,-0.08,1.50,0.01,-0.09,1.06
626,0.63,0.12,1.66,0.01,-0.09,1.07
627,0.27,-0.03,1.10,0.01,-0.09,1.06
628,-0.08,0.23,1.08,0.02,-0.09,1.06
629,-0.09,0.23,1.27,0.01,-0.09,1.06
630,0.09,0.31,1.01,0.02,-0.10,1.07
631,0.35,-0.03,1.39,0.01,-0.10,1.07
632,0.21,-0.17,1.44,0.02,-0.09,1.06
633,0.31,0.09,1.18,0.01,-0.10,1.06
634,0.05,0.21,0.95,0.01,-0.10,1.06
635,0.06,0.69,1.22,0.01,-0.10,1.06
636,0.37,0.40,1.11,0.01,-0.09,1.06
637,0.29,0.49,0.60,0.02,-0.09,1.06
638,-0.18,0.66,0.76,0.02,-0.09,1.06
639,0.08,0.31,0.93,0.01,-0.09,1.07
640,0.69,0.55,1.01,0.01,-0.10,1.07
641,0.47,0.67,1.10,0.01,-0.09,1.07
642,0.21,0.41,1.13,0.01,-0.10,1.07
643,0.52,0.38,0.98,0.01,-0.10,1.07
644,0.47,0.15,1.04,0.01,-0.10,1.06
645,-0.23,0.14,0.69,0.01,-0.09,1.06
646,-0.06,0.47,0.92,0.01,-0.09,1.07
647,0.32,0.64,1.08,0.01,-0.09,1.05
648,0.15,0.37,1.02,0.01,-0.09,1.06
649,0.17,0.24,1.02,0.01,-0.09,1.07
650,0.43,0.56,1.10,0.01,-0.10,1.06
651,0.18,0.29,1.22,0.00,-0.09,1.06
652,-0.12,0.20,1.04,0.01,-0.09,1.07
653,0.03,-0.08,0.69,0.00,-0.09,1.07
654,-0.11,-0.26,0.82,0.01,-0.09,1.06
655,-0.14,-0.18,1.18,0.01,-0.09,1.06
656,0.26,-0.20,1.27,0.02,-0.10,1.06
657,-0.09,0.35,1.13,0.02,-0.09,1.07
658,0.21,0.35,1.21,0.01,-0.10,1.06
659,0.50,0.46,1.10,0.01,-0.09,1.07
660,0.50,0.26,1.37,0.01,-0.09,1.07
661,0.37,0.38,1.77,0.01,-0.09,1.06
662,0.56,0.40,1.53,0.01,-0.09,1.07
663,0.40,0.17,1.53,0.00,-0.09,1.07
664,0.23,0.05,1.60,0.01,-0.09,1.06
665,0.23,-0.11,1.56,0.01,-0.09,1.06
666,0.14,-0.29,1.65,0.01,-0.09,1.07
667,0.11,-0.31,1.98,0.02,-0.09,1.06
668,0.46,-0.09,1.40,0.01,-0.09,1.06
669,0.12,0.02,1.39,0.01,-0.10,1.06
670,-0.20,-0.03,1.47,0.01,-0.09,1.06
671,0.08,-0.08,1.40,0.03,-0.09,1.07
672,0.21,0.20,1.47,0.02,-0.10,1.06
673,0.29,0.17,1.15,0.01,-0.09,1.07
674,-0.15,0.12,0.73,0.02,-0.09,1.06
675,-0.44,0.29,0.41,0.02,-0.10,1.06
676,-0.60,0.70,0.23,0.02,-0.09,1.06
677,-0.61,0.67,0.18,0.01,-0.09,1.05
678,-0.18,0.89,0.47,0.01,-0.09,1.06
679,0.34,1.05,1.02,0.00,-0.09,1.07
680,0.37,1.15,1.50,0.01,-0.09,1.06
681,0.47,1.18,1.30,0.01,-0.09,1.07
682,0.50,0.66,1.39,0.00,-0.09,1.07
683,0.32,0.49,1.74,0.01,-0.09,1.06
684,0.32,0.34,1.39,0.01,-0.09,1.06
685,0.34,0.18,0.82,0.01,-0.10,1.05
686,-0.20,-0.03,1.05,0.01,-0.09,1.06
687,-0.31,0.17,0.85,0.00,-0.09,1.07
688,-0.29,0.05,0.40,0.01,-0.09,1.07
689,-0.20,0.24,0.82,0.00,-0.09,1.06
690,-0.35,0.24,1.08,0.01,-0.10,1.06
691,-0.06,0.34,0.89,0.01,-0.09,1.06
692,0.12,0.34,0.50,0.01,-0.09,1.06
693,-0.52,0.52,1.01,0.02,-0.10,1.07
694,-0.37,0.38,0.98,0.02,-0.09,1.07
695,0.23,0.27,0.64,0.02,-0.10,1.05
696,0.02,0.43,1.11,0.01,-0.09,1.06
697,0.15,0.96,1.33,0.01,-0.09,1.06
698,0.60,0.61,1.21,0.01,-0.09,1.06
699,0.72,0.72,1.45,0.01,-0.08,1.05
700,0.34,0.58,1.59,0.01,-0.09,1.07
701,0.06,0.47,1.01,0.01,-0.09,1.08
702,0.26,0.21,1.59,0.01,-0.09,1.06
703,0.37,0.43,1.77,0.01,-0.09,1.05
704,0.43,0.61,1.33,0.01,-0.09,1.07
705,0.27,0.38,1.22,0.01,-0.09,1.06
706,0.05,0.02,1.73,0.01,-0.09,1.07
707,0.00,-0.35,1.22,0.01,-0.09,1.07
708,-0.09,-0.11,0.96,0.01,-0.09,1.06
709,-0.23,-0.11,0.90,0.01,-0.10,1.06
710,-0.66,-0.09,0.79,0.01,-0.09,1.07
711,-0.34,0.11,0.98,0.02,-0.10,1.06
712,-0.09,-0.09,0.85,0.01,-0.10,1.06
713,-0.20,0.12,0.73,0.02,-0.09,1.06
714,-0.21,0.43,0.53,0.02,-0.10,1.06
715,-0.41,0.50,0.29,0.02,-0.09,1.07
716,-0.79,0.76,0.18,0.01,-0.09,1.06
717,-0.27,0.76,0.15,0.02,-0.09,1.06
718,-0.12,0.90,0.58,0.01,-0.10,1.06
719,0.43,0.89,1.16,0.01,-0.10,1.06
720,0.34,0.78,0.56,0.01,-0.09,1.07
721,0.18,0.63,0.37,0.01,-0.10,1.07
722,-0.17,0.27,0.50,0.01,-0.09,1.07
723,-0.38,0.34,0.56,0.01,-0.10,1.06
724,0.06,0.32,0.41,0.00,-0.09,1.06
725,0.09,0.64,1.28,0.01,-0.09,1.07
726,0.20,0.43,1.16,0.00,-0.09,1.06
727,0.02,0.21,0.92,0.01,-0.09,1.06
728,-0.27,0.06,0.87,0.01,-0.09,1.07
729,-0.79,-0.14,0.69,0.01,-0.09,1.07
730,-0.66,0.05,0.41,0.01,-0.10,1.06
731,-0.27,0.23,0.56,0.01,-0.09,1.06
732,-0.06,0.06,0.50,0.01,-0.09,1.05
733,-0.31,0.15,-0.03,0.01,-0.09,1.07
734,-0.56,0.03,0.15,0.01,-0.09,1.06
735,-0.47,0.11,0.27,0.01,-0.10,1.06
736,-0.31,0.29,0.02,0.01,-0.09,1.06
737,-0.15,0.49,0.63,0.01,-0.09,1.07
738,-0.35,0.32,0.93,0.01,-0.09,1.06
739,-0.29,0.06,0.52,0.01,-0.10,1.06
740,-0.31,0.37,0.75,0.01,-0.10,1.07
741,-0.12,0.21,0.93,0.00,-0.10,1.06
742,0.21,0.09,0.84,0.01,-0.10,1.07
743,0.12,-0.03,0.46,0.01,-0.09,1.06
744,-0.08,0.06,0.79,0.01,-0.09,1.06
745,-0.35,0.44,0.49,0.01,-0.09,1.06
746,-0.08,0.43,0.58,0.01,-0.10,1.06
747,0.09,0.15,0.55,0.00,-0.09,1.07
748,0.17,0.00,1.16,0.01,-0.09,1.07
749,0.11,0.50,1.07,0.01,-0.10,1.06
750,0.24,0.26,0.79,0.01,-0.09,1.07
751,-0.27,-0.03,0.96,0.01,-0.09,1.06
752,-0.32,0.38,0.85,0.01,-0.09,1.07
753,-0.12,0.21,0.60,0.01,-0.09,1.06
754,-0.23,0.29,0.81,0.01,-0.09,1.06
755,0.02,0.20,1.13,0.02,-0.09,1.06
756,0.23,0.12,0.85,0.01,-0.09,1.06
757,0.15,0.24,1.27,0.01,-0.10,1.06
758,0.20,0.31,1.08,0.01,-0.09,1.07
759,-0.02,0.05,0.49,0.01,-0.10,1.07
760,0.05,0.35,0.63,0.01,-0.09,1.06
761,-0.14,0.24,0.37,0.01,-0.10,1.07
762,0.20,0.17,0.41,0.01,-0.10,1.07
763,-0.09,0.23,0.03,0.02,-0.10,1.07
764,-0.56,0.08,-0.09,0.01,-0.09,1.06
765,-0.78,-0.12,-0.52,0.01,-0.09,1.06
766,-0.81,-0.14,-0.46,0.01,-0.10,1.06
767,-0.75,0.00,0.00,0.01,-0.09,1.06
768,-0.52,0.18,0.21,0.01,-0.09,1.06
769,-0.26,0.40,0.14,0.01,-0.10,1.07
770,0.11,0.24,0.76,0.01,-0.10,1.07
771,0.60,0.03,1.10,0.01,-0.10,1.06
772,0.58,0.06,0.96,0.02,-0.10,1.07
773,0.49,0.75,0.96,0.01,-0.10,1.06
774,0.52,0.44,1.04,0.01,-0.10,1.05
775,0.43,0.72,0.85,0.01,-0.10,1.07
776,-0.20,0.89,1.15,0.02,-0.10,1.07
777,0.24,0.40,1.36,0.01,-0.09,1.07
778,0.52,0.40,1.21,0.01,-0.10,1.07
779,0.29,0.38,1.10,0.01,-0.10,1.06
780,0.06,0.35,1.18,0.01,-0.10,1.07
781,0.11,0.32,1.10,0.01,-0.09,1.06
782,0.11,0.11,1.11,0.01,-0.09,1.07
783,-0.18,0.26,1.27,0.01,-0.09,1.06
784,0.43,0.00,1.50,0.01,-0.09,1.06
785,0.67,0.37,1.73,0.01,-0.09,1.07
786,0.17,-0.12,1.21,0.01,-0.10,1.06
787,-0.18,-0.24,0.95,0.01,-0.09,1.07
788,0.21,-0.17,0.75,0.01,-0.10,1.06
789,-0.17,0.05,0.60,0.02,-0.09,1.07
790,0.14,-0.06,0.69,0.01,-0.10,1.07
791,0.40,-0.11,1.05,0.02,-0.10,1.06
792,0.50,-0.05,1.83,0.01,-0.09,1.06
793,0.47,0.44,1.71,0.02,-0.09,1.06
794,0.67,0.17,1.62,0.02,-0.09,1.05
795,0.23,0.31,1.31,0.01,-0.09,1.06
796,-0.06,0.23,1.28,0.01,-0.09,1.06
797,-0.05,0.02,1.22,0.02,-0.10,1.07
798,0.32,0.31,1.48,0.01,-0.09,1.06
799,0.11,0.32,1.36,0.01,-0.10,1.07
800,-0.15,0.27,0.78,0.02,-0.10,1.07
801,0.03,0.32,1.16,0.01,-0.10,1.06
802,0.05,0.81,0.93,0.01,-0.09,1.06
803,0.15,0.79,0.85,0.02,-0.09,1.07
804,0.49,0.53,1.33,0.01,-0.09,1.05
805,0.70,0.87,1.73,0.01,-0.09,1.06
806,0.38,0.73,1.16,0.01,-0.09,1.07
807,0.27,0.41,0.96,0.01,-0.09,1.07
808,-0.05,0.24,0.95,0.01,-0.09,1.06
809,-0.50,0.38,0.58,0.01,-0.09,1.05
810,-0.08,0.58,0.70,0.01,-0.10,1.07
811,-0.05,0.49,0.90,0.00,-0.10,1.06
812,-0.23,0.49,0.63,0.01,-0.09,1.07
813,-0.38,0.05,0.38,0.01,-0.10,1.06
814,-0.40,0.00,0.72,0.00,-0.09,1.06
815,-0.15,0.29,1.34,0.02,-0.10,1.07
816,0.29,0.52,1.16,0.01,-0.10,1.06
817,0.53,0.14,1.40,0.02,-0.10,1.07
818,0.32,0.26,1.31,0.02,-0.10,1.06
819,-0.09,0.46,0.78,0.01,-0.10,1.07
820,-0.12,0.66,0.98,0.01,-0.10,1.06
821,-0.02,0.46,1.60,0.02,-0.09,1.06
822,0.24,0.67,1.39,0.01,-0.09,1.06
823,0.35,0.70,0.90,0.01,-0.09,1.07
824,0.15,0.67,1.22,0.02,-0.10,1.06
825,0.08,0.78,0.95,0.01,-0.09,1.06
826,-0.06,0.73,0.96,0.01,-0.09,1.07
827,0.14,0.96,1.04,0.01,-0.10,1.06
828,0.31,0.87,1.27,0.01,-0.09,1.07
829,0.17,0.79,0.81,0.01,-0.10,1.06
830,0.05,0.43,1.30,0.01,-0.10,1.07
831,0.09,0.31,1.91,0.00,-0.09,1.06
832,0.29,0.47,1.44,0.01,-0.09,1.06
833,0.32,0.63,1.24,0.01,-0.09,1.06
834,0.11,0.11,1.48,0.01,-0.09,1.06
835,0.26,0.14,1.36,0.01,-0.10,1.07
836,0.43,0.00,1.71,0.01,-0.10,1.07
837,0.27,0.05,1.34,0.01,-0.10,1.05
838,-0.08,0.23,0.90,0.01,-0.09,1.06
839,0.40,-0.02,1.74,0.01,-0.09,1.06
840,0.70,0.40,2.18,0.01,-0.10,1.06
841,0.85,0.29,1.69,0.01,-0.10,1.06
842,0.56,0.46,1.33,0.02,-0.10,1.07
843,0.03,0.43,1.28,0.02,-0.09,1.07
844,0.03,0.18,1.22,0.02,-0.09,1.07
845,0.31,0.34,1.21,0.02,-0.10,1.06
846,0.26,0.61,1.30,0.02,-0.10,1.07
847,0.38,0.85,1.27,0.01,-0.10,1.07
848,0.24,0.49,1.01,0.01,-0.10,1.06
849,0.35,0.82,0.72,0.01,-0.09,1.06
850,0.08,0.78,0.87,0.02,-0.10,1.06
851,0.26,0.82,0.85,0.01,-0.10,1.06
852,0.37,0.76,1.08,0.00,-0.09,1.06
853,-0.20,1.18,0.69,0.01,-0.09,1.07
854,-0.47,0.58,0.67,0.01,-0.10,1.06
855,-0.14,0.63,0.99,0.00,-0.09,1.07
856,0.40,0.21,1.71,-0.00,-0.09,1.07
857,0.64,0.46,1.51,0.01,-0.09,1.06
858,0.23,0.31,0.76,0.00,-0.10,1.05
859,-0.56,0.46,0.67,0.01,-0.09,1.06
860,-0.84,0.52,0.64,0.01,-0.09,1.06
861,0.05,0.14,1.44,0.01,-0.10,1.06
862,0.69,0.34,1.83,0.01,-0.09,1.06
863,0.66,0.43,1.54,0.01,-0.09,1.07
864,0.50,0.06,1.11,0.01,-0.10,1.06
865,0.05,0.05,1.07,0.01,-0.09,1.07
866,-0.40,0.18,0.70,0.01,-0.09,1.06
867,-0.35,0.38,0.12,0.01,-0.09,1.06
868,-0.23,0.35,0.70,0.02,-0.09,1.05
869,0.12,0.35,1.22,0.01,-0.10,1.06
870,0.15,0.53,0.61,0.01,-0.10,1.06
871,0.08,0.37,0.58,0.01,-0.09,1.06
872,-0.03,0.37,0.58,0.01,-0.10,1.06
873,0.06,0.61,0.70,0.01,-0.09,1.06
874,0.17,0.43,0.70,0.01,-0.10,1.06
875,0.32,0.60,1.07,0.01,-0.10,1.06
876,0.18,0.64,0.95,0.01,-0.10,1.05
877,0.41,0.96,1.11,0.01,-0.09,1.07
878,0.79,0.40,1.91,0.01,-0.10,1.07
879,0.41,0.60,1.79,0.01,-0.10,1.06
880,0.55,0.47,1.40,0.00,-0.09,1.07
881,0.38,0.46,1.42,0.00,-0.09,1.07
882,0.47,0.52,1.80,0.01,-0.09,1.06
883,0.69,0.15,1.53,0.01,-0.10,1.06
884,0.55,0.03,1.45,0.01,-0.09,1.07
885,0.14,-0.15,1.30,0.01,-0.10,1.06
886,0.15,0.05,1.34,0.01,-0.09,1.07
887,0.27,0.02,0.99,0.01,-0.10,1.06
888,0.00,0.09,0.90,0.02,-0.09,1.07
889,-0.35,-0.05,1.13,0.02,-0.09,1.07
890,0.08,0.21,0.87,0.01,-0.09,1.06
891,-0.05,0.17,0.72,0.01,-0.10,1.07
892,-0.18,0.21,0.90,0.01,-0.10,1.06
893,-0.14,0.41,1.04,0.02,-0.09,1.08
894,0.34,0.11,1.27,0.01,-0.09,1.07
895,0.23,0.40,0.87,0.02,-0.10,1.06
896,0.18,0.35,0.44,0.01,-0.09,1.07
897,0.32,0.27,0.72,0.01,-0.10,1.06
898,0.24,0.43,0.89,0.02,-0.09,1.06
899,0.21,0.61,0.47,0.01,-0.09,1.07
900,-0.11,0.55,0.00,0.00,-0.09,1.07
901,-0.61,0.40,0.26,0.00,-0.10,1.06
902,-0.50,0.32,0.14,0.01,-0.09,1.06
903,-0.24,0.11,0.29,0.00,-0.10,1.07
904,-0.17,0.27,0.85,0.01,-0.10,1.07
905,-0.09,0.11,0.41,0.01,-0.10,1.07
906,-0.11,0.15,0.41,0.01,-0.10,1.07
907,-0.17,0.06,0.87,0.01,-0.10,1.06
908,0.05,0.03,0.95,0.01,-0.09,1.07
909,0.56,0.18,0.99,0.01,-0.09,1.07
910,0.56,0.31,1.13,0.02,-0.09,1.06
911,0.12,0.37,1.18,0.01,-0.09,1.07
912,-0.14,0.23,0.60,0.01,-0.09,1.06
913,0.24,0.17,0.76,0.01,-0.09,1.06
914,0.26,0.44,1.15,0.01,-0.10,1.06
915,0.32,0.66,1.16,0.01,-0.10,1.07
916,0.34,0.21,1.08,0.01,-0.09,1.07
917,0.15,0.15,1.63,0.01,-0.09,1.06
918,0.14,0.56,1.47,0.01,-0.09,1.06
919,0.26,0.27,1.19,0.01,-0.09,1.07
920,0.06,-0.03,1.50,0.01,-0.10,1.06
921,-0.26,-0.32,1.51,0.01,-0.10,1.07
922,-0.20,-0.49,1.51,0.01,-0.10,1.07
923,0.31,-0.52,1.80,0.02,-0.09,1.06
924,0.08,-0.23,1.37,0.02,-0.09,1.06
925,0.00,0.05,1.07,0.03,-0.10,1.06
926,-0.06,0.21,0.92,0.02,-0.10,1.06
927,-0.21,0.24,0.75,0.02,-0.10,1.06
928,-0.27,0.50,0.67,0.01,-0.09,1.06
929,0.23,0.26,1.10,0.02,-0.10,1.07
930,0.37,0.47,1.36,0.02,-0.10,1.07
931,0.17,0.78,1.24,0.02,-0.09,1.07
932,0.40,0.99,1.05,0.01,-0.09,1.06
933,0.29,1.21,1.30,0.02,-0.10,1.06
934,0.47,1.04,1.39,0.00,-0.08,1.06
935,0.69,1.30,1.30,0.01,-0.09,1.06
936,0.43,1.42,1.37,0.00,-0.10,1.06
937,0.35,0.95,1.66,0.01,-0.09,1.05
938,0.24,0.82,1.27,0.00,-0.09,1.07
939,0.24,0.23,0.99,0.00,-0.09,1.06
940,-0.35,0.14,0.98,0.00,-0.09,1.06
941,-0.27,-0.08,0.78,0.01,-0.09,1.06
942,-0.20,-0.05,0.95,0.00,-0.10,1.07
943,-0.40,0.00,0.63,0.01,-0.09,1.06
944,-0.26,-0.20,0.43,0.01,-0.09,1.06
945,-0.17,-0.06,0.98,0.02,-0.09,1.06
946,0.31,0.15,1.60,0.01,-0.09,1.05
947,0.44,-0.09,1.51,0.01,-0.09,1.06
948,0.32,0.34,1.51,0.02,-0.10,1.06
949,0.00,0.32,1.28,0.01,-0.09,1.07
950,-0.44,0.23,1.05,0.01,-0.09,1.06
951,-0.32,0.26,1.01,0.02,-0.09,1.06
952,-0.15,0.24,0.99,0.02,-0.09,1.06
953,-0.35,0.58,0.61,0.02,-0.10,1.06
954,-0.14,0.58,0.95,0.02,-0.09,1.07
955,0.08,0.53,1.36,0.01,-0.09,1.07
956,0.11,0.46,1.24,0.02,-0.09,1.06
957,0.34,0.49,1.21,0.01,-0.09,1.07
958,0.79,0.38,1.65,0.02,-0.10,1.06
959,0.67,0.47,1.45,0.01,-0.09,1.06
960,0.64,0.67,1.36,0.01,-0.09,1.07
961,0.73,0.32,1.53,0.00,-0.10,1.07
962,0.27,0.41,1.54,0.01,-0.10,1.06
963,0.17,0.41,1.21,0.01,-0.10,1.07
964,0.15,0.21,1.02,0.01,-0.09,1.06
965,-0.31,0.32,0.63,0.01,-0.09,1.06
966,-0.52,0.23,0.78,0.01,-0.09,1.07
967,-0.09,0.17,1.24,0.01,-0.09,1.06
968,0.40,0.23,1.45,0.01,-0.10,1.06
969,0.08,0.03,1.28,0.01,-0.09,1.07
970,0.17,-0.09,1.18,0.02,-0.10,1.06
971,0.18,0.32,1.10,0.02,-0.10,1.06
972,0.03,0.29,1.11,0.02,-0.10,1.06
973,0.44,0.49,1.40,0.02,-0.10,1.06
974,0.92,0.64,1.48,0.01,-0.10,1.06
975,0.78,0.95,1.56,0.02,-0.10,1.06
976,0.29,0.84,0.78,0.01,-0.09,1.07
977,0.17,0.67,0.67,0.00,-0.09,1.07
978,-0.06,0.50,1.08,0.00,-0.09,1.07
979,-0.11,0.49,1.19,0.01,-0.10,1.07
980,0.43,0.44,1.10,0.01,-0.09,1.06
981,0.84,0.61,1.24,0.01,-0.09,1.06
982,0.47,0.27,1.45,0.01,-0.09,1.06
983,0.32,0.37,1.11,0.01,-0.09,1.06
984,-0.14,0.21,1.02,0.01,-0.09,1.07
985,-0.09,0.15,1.18,0.00,-0.09,1.07
986,0.14,0.14,1.18,0.01,-0.09,1.07
987,0.26,0.18,0.95,0.01,-0.10,1.07
988,0.17,0.21,1.02,0.02,-0.09,1.06
989,0.03,0.34,0.73,0.01,-0.10,1.06
990,-0.03,0.58,0.56,0.02,-0.10,1.07
991,-0.24,0.32,0.34,0.01,-0.10,1.07
992,-0.38,0.31,0.09,0.01,-0.09,1.07
993,0.21,0.43,0.69,0.01,-0.10,1.06
994,0.52,0.56,1.51,0.02,-0.09,1.06
995,0.63,0.44,1.11,0.01,-0.09,1.06
996,0.44,0.73,0.89,0.01,-0.10,1.07
997,-0.15,0.37,1.30,0.01,-0.10,1.06
998,-0.27,0.41,0.82,0.01,-0.09,1.06
999,0.32,0.14,0.85,0.01,-0.10,1.07
1000,0.38,0.23,1.11,0.01,-0.10,1.07
1001,0.11,0.20,0.90,0.01,-0.10,1.07
1002,-0.09,0.50,0.44,0.01,-0.09,1.07
1003,-0.29,0.03,0.44,0.01,-0.09,1.06
1004,-0.73,0.11,0.73,0.01,-0.09,1.07
1005,-0.47,0.29,0.23,0.01,-0.09,1.06
1006,0.00,0.05,0.58,0.01,-0.09,1.06
1007,0.21,0.09,0.96,0.02,-0.10,1.06
1008,0.09,0.11,0.61,0.01,-0.09,1.07
1009,0.00,0.00,0.31,0.01,-0.10,1.07
1010,-0.47,0.09,0.32,0.02,-0.09,1.07
1011,-0.26,0.08,1.21,0.01,-0.09,1.06
1012,0.46,0.21,1.65,0.02,-0.09,1.06
1013,0.43,0.43,1.63,0.01,-0.09,1.05
1014,0.17,0.64,1.10,0.01,-0.09,1.06
1015,0.38,0.50,1.25,0.01,-0.10,1.06
1016,0.08,0.55,1.08,0.01,-0.10,1.06
1017,-0.23,0.18,0.84,0.01,-0.09,1.07
1018,0.37,0.38,1.15,0.01,-0.09,1.06
1019,0.64,0.63,1.45,0.01,-0.10,1.06
1020,0.32,0.34,1.51,0.01,-0.10,1.07
1021,0.58,0.21,0.93,0.02,-0.10,1.07
1022,0.41,0.20,0.96,0.02,-0.10,1.07
1023,0.09,0.26,0.84,0.02,-0.09,1.07
1024,-0.02,0.35,0.44,0.01,-0.09,1.06
1025,0.06,0.56,0.44,0.02,-0.09,1.06
1026,-0.05,0.50,0.85,0.01,-0.10,1.06
1027,0.03,0.52,1.10,0.02,-0.10,1.07
1028,0.32,0.27,1.02,0.02,-0.10,1.06
1029,0.49,0.53,1.36,0.01,-0.09,1.06
1030,0.24,0.44,1.56,0.01,-0.09,1.06
1031,0.64,0.46,1.31,0.01,-0.09,1.06
1032,0.20,0.49,1.13,0.02,-0.09,1.05
1033,0.08,0.49,0.79,0.01,-0.09,1.06
1034,-0.14,0.40,0.67,0.01,-0.09,1.07
1035,-0.06,0.21,0.63,0.01,-0.09,1.06
1036,0.08,0.18,1.18,0.01,-0.09,1.06
1037,0.38,0.26,1.15,0.02,-0.10,1.06
1038,0.44,0.20,0.96,0.01,-0.10,1.06
1039,0.34,0.15,0.66,0.01,-0.11,1.07
1040,0.02,0.11,0.98,0.01,-0.10,1.07
1041,0.29,0.15,1.37,0.01,-0.09,1.06
1042,0.43,0.76,1.59,0.01,-0.09,1.06
1043,0.20,0.37,1.65,0.01,-0.08,1.07
1044,0.37,0.14,1.42,0.01,-0.09,1.06
1045,0.49,-0.29,2.12,0.01,-0.09,1.07
1046,0.38,-0.46,2.08,0.01,-0.09,1.08
1047,0.20,-0.38,1.66,0.00,-0.10,1.07
1048,0.02,-0.41,1.40,0.01,-0.10,1.07
1049,-0.37,-0.14,1.63,0.01,-0.10,1.06
1050,-0.32,-0.18,0.99,0.02,-0.10,1.05
1051,0.23,0.17,1.54,0.02,-0.10,1.06
1052,0.55,0.32,2.12,0.02,-0.09,1.05
1053,0.56,0.67,1.62,0.02,-0.10,1.07
1054,0.49,0.92,1.11,0.01,-0.10,1.06
1055,-0.02,0.49,0.96,0.01,-0.10,1.07
1056,-0.24,0.56,0.44,0.02,-0.09,1.06
1057,0.08,0.60,0.40,0.00,-0.10,1.06
1058,0.15,1.07,0.84,0.01,-0.10,1.06
1059,-0.09,1.16,0.24,0.01,-0.09,1.07
1060,0.21,0.64,0.00,0.01,-0.10,1.07
1061,-0.11,0.34,0.43,0.00,-0.09,1.07
1062,-0.32,0.47,0.46,0.00,-0.09,1.07
1063,0.00,0.15,0.92,0.01,-0.09,1.06
1064,0.41,0.41,1.28,0.01,-0.09,1.06
1065,0.00,0.20,1.36,0.01,-0.09,1.06
1066,0.03,0.47,1.15,0.01,-0.10,1.06
1067,-0.09,0.08,1.04,0.01,-0.10,1.06
1068,-0.24,0.06,1.11,0.01,-0.09,1.07
1069,0.00,-0.18,1.47,0.01,-0.10,1.06
1070,0.26,0.29,1.39,0.01,-0.09,1.06
1071,0.05,0.46,1.37,0.02,-0.10,1.06
1072,-0.15,0.38,1.15,0.02,-0.09,1.07
1073,-0.06,0.41,0.93,0.02,-0.11,1.07
1074,0.12,0.31,1.13,0.02,-0.09,1.07
1075,-0.14,0.46,0.89,0.02,-0.10,1.07
1076,0.23,0.41,1.05,0.01,-0.10,1.06
1077,0.46,0.56,1.01,0.02,-0.09,1.06
1078,0.15,0.52,1.05,0.01,-0.09,1.06
1079,0.17,0.75,1.02,0.01,-0.09,1.07
1080,0.18,0.50,1.44,0.01,-0.09,1.07
1081,0.21,0.72,1.31,0.01,-0.09,1.06
1082,0.26,0.38,1.04,0.00,-0.09,1.06
1083,-0.11,0.32,0.61,0.01,-0.09,1.07
1084,-0.20,0.41,1.08,0.01,-0.09,1.06
1085,0.08,0.37,0.61,0.01,-0.09,1.06
1086,0.20,0.18,0.55,0.01,-0.10,1.08
1087,-0.31,0.17,0.85,0.01,-0.10,1.07
1088,-0.09,0.29,1.42,0.01,-0.10,1.07
1089,0.40,0.06,1.19,0.02,-0.10,1.06
1090,0.47,0.40,1.22,0.01,-0.10,1.06
1091,0.12,0.09,1.04,0.01,-0.09,1.06
1092,-0.23,0.18,0.50,0.02,-0.10,1.05
1093,-0.18,0.08,0.98,0.01,-0.10,1.06
1094,0.21,0.31,1.25,0.02,-0.10,1.07
1095,0.21,0.32,1.05,0.02,-0.10,1.06
1096,0.05,0.53,1.07,0.02,-0.10,1.06
1097,0.08,0.82,0.98,0.01,-0.09,1.06
1098,0.05,0.87,0.70,0.01,-0.10,1.06
1099,0.34,0.76,0.81,0.01,-0.10,1.07
1100,0.06,0.56,1.01,0.01,-0.09,1.05
1101,0.14,0.75,0.75,0.01,-0.09,1.07
1102,0.52,0.81,0.73,0.01,-0.09,1.06
1103,0.11,0.82,0.95,0.01,-0.09,1.07
1104,0.02,0.55,0.96,0.01,-0.09,1.06
1105,0.32,0.23,0.98,0.00,-0.09,1.06
1106,0.15,-0.23,1.37,0.01,-0.09,1.07
1107,0.14,-0.11,1.18,0.01,-0.09,1.06
1108,-0.32,-0.03,0.63,0.02,-0.09,1.07
1109,-0.49,0.00,0.63,0.01,-0.09,1.07
1110,-0.63,-0.11,0.50,0.01,-0.09,1.06
1111,-0.46,0.05,0.34,0.02,-0.09,1.06
1112,-0.24,0.14,0.69,0.01,-0.10,1.06
1113,-0.08,0.14,0.98,0.01,-0.10,1.06
1114,-0.21,0.32,0.37,0.02,-0.09,1.06
1115,-0.06,0.29,0.69,0.02,-0.10,1.07
1116,0.32,0.43,1.19,0.02,-0.09,1.06
1117,0.56,0.56,1.28,0.01,-0.09,1.06
1118,0.53,0.58,1.04,0.02,-0.10,1.06
1119,0.49,0.38,0.98,0.01,-0.10,1.06
1120,0.11,0.26,0.87,0.01,-0.10,1.06
1121,-0.03,0.41,0.52,0.01,-0.09,1.06
1122,-0.20,0.38,1.18,0.01,-0.10,1.07
1123,-0.20,0.43,0.66,0.01,-0.10,1.06
1124,-0.03,0.15,0.52,0.01,-0.09,1.07
1125,-0.41,0.08,0.72,0.01,-0.10,1.06
1126,-0.47,0.18,0.47,0.01,-0.09,1.06
1127,-0.23,0.56,0.21,0.00,-0.10,1.06
1128,-0.27,0.18,0.46,0.02,-0.09,1.06
1129,-0.53,0.43,0.46,0.01,-0.10,1.06
1130,-0.14,0.24,0.46,0.01,-0.10,1.07
1131,0.11,0.14,0.87,0.00,-0.09,1.07
1132,-0.32,0.05,0.58,0.01,-0.10,1.07
1133,-0.31,0.17,0.08,0.01,-0.10,1.06
1134,-0.37,-0.02,0.09,0.01,-0.10,1.06
1135,-0.58,-0.23,0.38,0.02,-0.09,1.06
1136,-0.17,0.24,0.69,0.01,-0.09,1.05
1137,0.31,0.24,0.76,0.01,-0.09,1.06
1138,-0.23,0.23,1.08,0.01,-0.09,1.07
1139,-0.24,0.56,0.82,0.01,-0.09,1.06
1140,-0.27,0.23,0.49,0.01,-0.09,1.06
1141,-0.26,0.34,0.75,0.01,-0.10,1.07
1142,-0.40,0.37,0.84,0.02,-0.10,1.07
1143,-0.11,0.35,0.85,0.02,-0.10,1.06
1144,0.23,0.24,1.56,0.01,-0.10,1.06
1145,0.24,0.46,1.73,0.01,-0.09,1.05
1146,0.87,0.31,1.39,0.02,-0.10,1.07
1147,1.01,0.56,1.36,0.01,-0.09,1.06
1148,0.14,0.44,0.95,0.01,-0.10,1.06
1149,0.00,0.12,0.44,0.01,-0.09,1.07
1150,0.31,0.17,0.84,0.01,-0.10,1.06
1151,-0.12,0.05,0.66,0.02,-0.09,1.06
1152,-0.24,0.06,0.63,0.02,-0.09,1.06
1153,0.00,0.38,0.98,0.01,-0.10,1.07
1154,-0.05,0.41,1.13,0.01,-0.10,1.07
1155,0.05,0.40,0.73,0.02,-0.10,1.07
1156,-0.23,0.64,0.09,0.01,-0.10,1.06
1157,-0.38,0.34,0.75,0.01,-0.09,1.06
1158,-0.43,0.29,0.61,0.01,-0.09,1.06
1159,-0.21,0.03,0.06,0.01,-0.09,1.07
1160,-0.14,0.17,0.38,0.01,-0.09,1.07
1161,-0.40,0.15,0.43,0.01,-0.09,1.07
1162,-0.15,-0.05,0.64,0.01,-0.09,1.05
1163,-0.03,0.06,0.56,0.01,-0.10,1.06
1164,-0.06,0.08,0.79,0.01,-0.09,1.06
1165,-0.20,0.15,0.56,0.01,-0.10,1.07
1166,-0.03,0.20,0.35,0.02,-0.10,1.06
1167,-0.21,0.21,0.60,0.01,-0.10,1.06
1168,0.02,0.15,1.10,0.01,-0.09,1.06
1169,0.43,0.23,1.65,0.02,-0.09,1.07
1170,0.40,0.09,2.26,0.01,-0.09,1.06
1171,0.66,0.02,2.23,0.01,-0.10,1.07
1172,0.49,-0.05,1.19,0.01,-0.10,1.07
1173,0.17,-0.29,1.45,0.01,-0.10,1.07
1174,-0.08,-0.50,1.54,0.01,-0.10,1.06
1175,-0.03,-0.37,1.36,0.02,-0.10,1.06
1176,0.34,-0.23,1.21,0.02,-0.10,1.06
1177,-0.26,0.18,1.04,0.02,-0.10,1.05
1178,-0.34,0.21,0.99,0.02,-0.10,1.06
1179,-0.03,0.27,1.02,0.01,-0.09,1.06
1180,0.06,0.03,0.73,0.02,-0.10,1.07
1181,-0.09,0.43,0.61,0.02,-0.09,1.07
1182,0.21,0.32,0.55,0.01,-0.10,1.06
1183,0.23,0.53,0.27,0.01,-0.10,1.06
1184,-0.24,0.40,0.14,0.01,-0.10,1.06
1185,-0.63,0.76,0.06,0.01,-0.09,1.06
1186,0.00,0.82,0.58,0.01,-0.09,1.06
1187,0.32,1.02,0.99,0.02,-0.09,1.06
1188,0.84,0.85,0.87,0.01,-0.10,1.07
1189,0.85,0.78,1.36,0.01,-0.10,1.06
1190,0.47,0.69,1.42,0.00,-0.09,1.07
1191,0.29,0.23,1.16,0.00,-0.10,1.07
1192,0.32,0.06,1.28,0.01,-0.09,1.06
1193,-0.15,-0.06,1.01,0.00,-0.10,1.07
1194,-0.05,0.03,1.08,0.00,-0.09,1.06
1195,-0.05,-0.08,1.24,0.01,-0.09,1.05
1196,-0.29,-0.05,1.22,0.01,-0.09,1.06
1197,-0.12,0.12,1.33,0.01,-0.10,1.07
1198,0.00,-0.14,1.21,0.01,-0.10,1.06
1199,0.05,-0.31,1.27,0.01,-0.10,1.06
1200,-0.27,-0.23,0.98,0.01,-0.09,1.06
1201,-0.08,-0.40,0.87,0.01,-0.10,1.07
1202,-0.43,-0.14,0.78,0.02,-0.10,1.06
1203,-0.44,0.17,0.56,0.02,-0.10,1.05
1204,0.35,0.31,1.04,0.02,-0.10,1.07
1205,0.78,0.15,1.48,0.02,-0.10,1.07
1206,0.47,0.05,0.96,0.02,-0.10,1.07
1207,0.17,0.15,0.52,0.01,-0.09,1.06
1208,-0.21,-0.11,0.55,0.02,-0.09,1.06
1209,0.02,0.00,0.96,0.02,-0.09,1.06
1210,0.18,0.61,0.92,0.02,-0.09,1.06
1211,0.29,0.85,1.13,0.02,-0.10,1.05
1212,0.50,0.75,1.85,0.02,-0.10,1.06
1213,0.53,0.81,1.44,0.02,-0.10,1.06
1214,0.26,0.49,0.92,0.01,-0.10,1.06
1215,0.15,0.58,1.07,0.01,-0.09,1.05
1216,0.18,0.85,1.18,0.01,-0.09,1.05
1217,0.29,1.33,0.95,0.01,-0.10,1.06
1218,0.46,1.07,1.31,0.00,-0.10,1.06
1219,0.53,0.78,1.07,0.01,-0.09,1.07
