,gyro_x,gyro_y,gyro_z,acce_x,acce_y,acce_z
0,0.29,-0.40,-1.66,0.04,-0.07,1.06
1,1.27,0.17,-1.10,0.04,-0.07,1.06
2,1.37,0.98,-1.33,0.03,-0.07,1.06
3,0.89,0.76,-1.19,0.02,-0.06,1.07
4,0.85,0.05,-1.15,0.02,-0.05,1.07
5,0.53,0.00,-1.53,0.01,-0.06,1.07
6,0.29,-0.58,-1.50,0.02,-0.06,1.06
7,0.14,-0.60,-1.10,0.02,-0.06,1.07
8,0.67,-1.10,-1.63,0.02,-0.07,1.07
9,1.45,-1.21,-0.75,0.02,-0.07,1.06
10,1.02,-0.35,-0.37,0.02,-0.07,1.05
11,0.73,-0.85,-0.81,0.03,-0.06,1.06
12,0.89,-0.78,-0.85,0.03,-0.06,1.07
13,0.87,-1.01,-0.82,0.02,-0.06,1.06
14,0.63,-0.89,-1.08,0.03,-0.07,1.06
15,0.78,-1.28,-1.19,0.03,-0.07,1.07
16,0.44,-0.95,-1.19,0.03,-0.07,1.07
17,0.43,-1.11,-1.39,0.04,-0.07,1.07
18,0.37,-0.72,-1.48,0.04,-0.07,1.07
19,0.82,-0.35,-1.28,0.03,-0.07,1.06
20,0.72,-0.09,-0.93,0.04,-0.07,1.06
21,0.89,0.06,-1.44,0.04,-0.07,1.07
22,1.24,0.17,-1.15,0.04,-0.07,1.07
23,0.89,-0.20,-1.18,0.04,-0.07,1.06
24,0.52,0.29,-1.66,0.04,-0.06,1.07
25,0.92,0.47,-1.76,0.04,-0.07,1.06
26,0.87,0.87,-1.53,0.04,-0.06,1.06
27,0.96,0.96,-1.56,0.04,-0.06,1.06
28,0.98,1.19,-1.60,0.04,-0.06,1.06
29,0.82,1.59,-1.56,0.04,-0.06,1.05
30,0.72,1.77,-1.10,0.03,-0.07,1.06
31,0.64,1.65,-1.18,0.03,-0.06,1.06
32,0.82,1.45,-1.18,0.02,-0.06,1.06
33,0.26,1.51,-0.66,0.02,-0.05,1.06
34,0.08,1.18,-0.66,0.01,-0.05,1.07
35,0.24,1.11,-0.23,0.01,-0.06,1.07
36,0.53,0.85,0.64,0.01,-0.06,1.07
37,0.52,0.38,0.78,0.01,-0.06,1.07
38,0.06,-0.31,0.06,0.01,-0.06,1.08
39,-0.31,-0.70,0.49,0.00,-0.05,1.07
40,-0.95,-0.92,0.37,0.01,-0.05,1.07
41,-1.31,-1.27,0.47,0.01,-0.05,1.07
42,-0.79,-1.08,1.10,0.02,-0.06,1.07
43,-0.66,-1.10,1.19,0.02,-0.07,1.07
44,-0.82,-1.48,0.72,0.02,-0.06,1.07
45,-0.73,-1.48,1.04,0.03,-0.07,1.06
46,-0.44,-1.36,1.25,0.04,-0.06,1.06
47,-0.70,-1.15,0.93,0.04,-0.06,1.05
48,-0.75,-1.07,0.93,0.05,-0.06,1.07
49,-0.44,-0.60,1.71,0.05,-0.07,1.06
50,-0.03,-0.43,2.26,0.05,-0.06,1.06
51,0.23,-0.05,1.89,0.05,-0.07,1.06
52,-0.24,0.35,1.50,0.05,-0.07,1.06
53,-0.70,0.58,1.13,0.05,-0.07,1.06
54,-0.67,0.93,0.55,0.04,-0.07,1.06
55,-0.44,1.39,0.87,0.06,-0.07,1.06
56,-0.02,1.63,1.21,0.05,-0.07,1.06
57,0.08,2.34,1.07,0.05,-0.06,1.06
58,0.24,2.50,1.13,0.04,-0.06,1.06
59,-0.12,2.43,1.15,0.04,-0.07,1.07
60,-0.23,2.63,0.78,0.04,-0.05,1.07
61,0.06,2.60,0.58,0.03,-0.06,1.07
62,0.03,3.01,0.96,0.03,-0.06,1.06
63,-0.15,3.05,1.33,0.02,-0.06,1.08
64,0.35,2.93,1.04,0.03,-0.06,1.08
65,0.47,2.95,1.50,0.01,-0.07,1.07
66,0.17,2.46,1.54,0.01,-0.07,1.07
67,0.08,1.98,0.96,0.01,-0.07,1.07
68,0.05,2.02,1.08,0.02,-0.07,1.07
69,-0.15,1.51,1.59,0.01,-0.07,1.07
70,-0.67,1.42,1.25,0.01,-0.06,1.07
71,-0.34,1.27,1.51,0.01,-0.07,1.06
72,-0.40,1.01,2.18,0.01,-0.06,1.07
73,-0.60,0.98,2.09,0.01,-0.07,1.07
74,-0.70,0.63,1.83,0.01,-0.07,1.07
75,-0.76,0.40,2.02,0.01,-0.07,1.07
76,-1.30,-0.03,1.83,0.01,-0.06,1.06
77,-1.25,-0.27,2.15,0.03,-0.06,1.07
78,-0.70,-0.34,2.70,0.03,-0.07,1.07
79,-0.61,0.05,2.76,0.03,-0.08,1.06
80,-0.46,0.43,2.81,0.03,-0.07,1.07
81,-0.09,0.47,2.78,0.04,-0.08,1.06
82,-0.20,0.78,2.58,0.04,-0.08,1.07
83,-0.18,1.05,2.26,0.04,-0.07,1.06
84,0.20,1.19,2.12,0.03,-0.07,1.06
85,0.23,1.57,2.50,0.04,-0.07,1.05
86,0.23,1.83,2.58,0.03,-0.06,1.06
87,0.40,1.98,1.97,0.02,-0.06,1.07
88,0.70,2.08,2.49,0.02,-0.07,1.06
89,0.58,2.14,2.87,0.02,-0.07,1.07
90,0.34,1.85,2.47,0.01,-0.06,1.07
91,0.64,1.39,2.35,0.02,-0.06,1.07
92,0.53,0.99,2.66,0.01,-0.06,1.07
93,0.12,1.16,2.38,0.01,-0.06,1.07
94,-0.17,0.55,1.82,0.01,-0.06,1.07
95,-0.06,0.27,2.17,0.01,-0.06,1.07
96,-0.38,0.17,2.37,0.02,-0.06,1.07
97,-0.21,0.14,1.86,0.01,-0.07,1.06
98,-0.46,0.09,2.14,0.03,-0.06,1.06
99,-0.92,-0.14,2.11,0.02,-0.07,1.06
100,-0.67,0.27,1.82,0.02,-0.07,1.06
101,-0.43,0.60,2.26,0.03,-0.07,1.06
102,-0.40,0.60,2.61,0.02,-0.07,1.07
103,-0.06,0.66,2.26,0.02,-0.08,1.07
104,0.31,0.24,2.43,0.03,-0.08,1.06
105,0.00,0.55,2.34,0.02,-0.07,1.06
106,-0.32,0.56,2.09,0.03,-0.07,1.07
107,0.21,0.40,1.76,0.02,-0.08,1.07
108,0.43,0.50,2.40,0.02,-0.07,1.06
109,0.61,0.67,2.34,0.02,-0.07,1.07
110,0.09,0.29,1.63,0.02,-0.06,1.08
111,0.05,-0.09,1.33,0.02,-0.07,1.08
112,-0.53,0.06,1.34,0.02,-0.07,1.07
113,-0.78,-0.09,0.81,0.02,-0.07,1.06
114,-0.61,0.29,0.56,0.02,-0.07,1.07
115,-0.40,0.53,0.92,0.03,-0.07,1.06
116,-0.31,0.49,0.98,0.03,-0.07,1.07
117,0.49,0.81,0.73,0.03,-0.07,1.07
118,0.61,1.15,1.19,0.03,-0.07,1.06
119,0.05,0.85,0.98,0.03,-0.06,1.07
120,-0.38,0.66,0.31,0.01,-0.05,1.07
121,0.55,0.63,1.31,0.03,-0.06,1.06
122,-0.05,0.90,1.27,0.02,-0.06,1.07
123,-0.03,0.38,0.75,0.02,-0.06,1.07
124,0.79,0.47,1.13,0.03,-0.06,1.06
125,-0.14,0.66,1.02,0.02,-0.07,1.07
126,-0.32,0.18,0.61,0.02,-0.07,1.06
127,0.31,0.34,0.66,0.02,-0.07,1.06
128,-0.27,0.09,0.58,0.02,-0.06,1.08
129,-0.58,0.02,0.67,0.02,-0.07,1.07
130,0.08,0.29,0.79,0.03,-0.07,1.06
131,-0.47,0.70,0.44,0.02,-0.07,1.07
132,-0.49,0.49,0.75,0.03,-0.07,1.06
133,-0.03,0.79,1.05,0.02,-0.07,1.07
134,0.55,0.98,1.28,0.02,-0.07,1.07
135,0.35,0.92,1.48,0.03,-0.07,1.07
136,0.09,0.75,1.05,0.02,-0.07,1.07
137,-0.03,0.58,0.89,0.02,-0.07,1.06
138,-0.23,0.58,1.21,0.02,-0.06,1.06
139,0.12,0.70,1.25,0.02,-0.07,1.07
140,0.34,0.55,0.90,0.02,-0.07,1.08
141,0.14,0.41,0.82,0.02,-0.07,1.07
142,-0.05,0.47,1.10,0.02,-0.07,1.07
143,0.08,0.81,1.04,0.02,-0.06,1.07
144,0.49,0.50,1.54,0.02,-0.07,1.07
145,0.37,0.34,1.92,0.02,-0.06,1.07
146,0.32,-0.03,1.77,0.01,-0.05,1.07
147,0.21,0.06,1.54,0.01,-0.06,1.07
148,-0.06,-0.23,1.88,0.02,-0.06,1.06
149,-0.21,-0.35,1.47,0.02,-0.06,1.06
150,-0.20,-0.41,1.15,0.02,-0.06,1.06
151,-0.31,-0.37,1.53,0.03,-0.07,1.07
152,0.00,-0.72,1.48,0.02,-0.06,1.06
153,-0.11,-0.66,0.84,0.03,-0.07,1.07
154,-0.15,-0.44,0.69,0.03,-0.07,1.06
155,-0.32,-0.67,0.50,0.03,-0.07,1.07
156,-0.50,-0.37,0.23,0.03,-0.07,1.06
157,-0.15,-0.15,0.72,0.03,-0.06,1.07
158,0.02,-0.12,1.40,0.03,-0.07,1.06
159,0.21,0.00,0.89,0.03,-0.07,1.07
160,-0.20,-0.26,0.64,0.02,-0.07,1.07
161,-0.20,-0.15,0.93,0.03,-0.07,1.06
162,-0.31,-0.12,1.25,0.03,-0.07,1.06
163,-0.17,0.08,0.95,0.03,-0.07,1.07
164,0.12,0.27,1.54,0.02,-0.08,1.06
165,0.03,0.44,0.98,0.03,-0.07,1.06
166,0.14,0.41,0.63,0.03,-0.08,1.07
167,-0.02,0.11,0.44,0.03,-0.07,1.06
168,-0.56,0.11,0.41,0.03,-0.07,1.06
169,0.08,0.34,0.64,0.03,-0.07,1.07
170,0.63,0.31,1.18,0.03,-0.07,1.06
171,0.53,0.66,1.16,0.03,-0.07,1.07
172,0.34,0.64,0.85,0.02,-0.06,1.06
173,0.23,0.44,0.87,0.02,-0.08,1.07
174,0.31,0.50,1.01,0.02,-0.07,1.07
175,0.20,0.44,0.84,0.01,-0.07,1.08
176,0.08,0.38,0.43,0.01,-0.07,1.07
177,-0.02,0.21,0.61,0.02,-0.07,1.07
178,-0.14,0.06,0.85,0.02,-0.07,1.06
179,-0.15,-0.21,0.85,0.01,-0.06,1.07
180,0.17,-0.21,1.05,0.02,-0.07,1.06
181,-0.12,-0.12,1.40,0.01,-0.07,1.06
182,-0.32,-0.37,0.76,0.01,-0.07,1.07
183,-0.31,-1.10,0.56,0.01,-0.08,1.06
184,-0.63,-0.89,0.75,0.02,-0.07,1.06
185,-0.79,-0.95,0.38,0.02,-0.07,1.07
186,-0.38,-0.69,0.44,0.03,-0.07,1.07
187,-0.06,-0.40,0.64,0.03,-0.08,1.06
188,-0.24,-0.43,0.34,0.04,-0.07,1.07
189,-0.11,-0.03,0.20,0.03,-0.08,1.06
190,0.11,0.34,0.93,0.04,-0.08,1.06
191,0.43,0.64,0.79,0.03,-0.07,1.06
192,0.43,0.85,0.66,0.03,-0.07,1.07
193,0.61,0.63,0.78,0.02,-0.07,1.06
194,0.60,0.49,0.53,0.02,-0.07,1.06
195,0.15,0.29,0.26,0.02,-0.07,1.07
196,0.18,0.50,0.26,0.02,-0.07,1.06
197,0.31,0.21,0.63,0.02,-0.07,1.07
198,0.14,0.24,0.35,0.03,-0.07,1.07
199,-0.26,-0.09,0.31,0.02,-0.07,1.07
200,-0.12,-0.40,0.49,0.02,-0.07,1.07
201,0.23,-0.52,0.79,0.02,-0.06,1.07
202,0.29,-0.82,0.64,0.03,-0.07,1.06
203,0.24,-0.75,0.79,0.02,-0.06,1.07
204,-0.14,-0.56,1.02,0.02,-0.06,1.06
205,0.02,-0.53,0.96,0.02,-0.07,1.06
206,0.70,-0.26,1.01,0.03,-0.08,1.07
207,0.49,-0.26,1.24,0.03,-0.07,1.06
208,0.05,-0.03,0.63,0.03,-0.07,1.06
209,0.03,-0.15,0.79,0.03,-0.07,1.06
210,0.12,0.35,1.25,0.03,-0.07,1.05
211,0.27,0.14,1.45,0.03,-0.07,1.06
212,0.52,0.50,1.31,0.02,-0.07,1.07
213,0.58,0.12,1.05,0.03,-0.07,1.06
214,0.21,0.03,0.96,0.02,-0.07,1.07
215,-0.12,0.03,0.63,0.03,-0.07,1.07
216,-0.05,0.06,0.35,0.03,-0.06,1.06
217,0.29,0.14,1.04,0.02,-0.07,1.07
218,0.31,0.37,1.33,0.02,-0.06,1.07
219,0.58,0.23,1.11,0.01,-0.07,1.07
220,0.37,0.31,1.30,0.02,-0.07,1.08
221,0.26,0.09,1.19,0.02,-0.07,1.07
222,0.38,0.20,0.84,0.03,-0.07,1.07
223,0.14,-0.06,0.84,0.02,-0.07,1.07
224,-0.15,-0.06,0.79,0.03,-0.07,1.06
225,0.11,0.12,0.41,0.03,-0.06,1.07
226,0.44,0.26,0.61,0.03,-0.07,1.07
227,0.76,0.17,0.89,0.03,-0.07,1.07
228,0.46,0.52,0.44,0.03,-0.07,1.07
229,0.34,0.75,0.26,0.03,-0.07,1.06
230,0.56,0.70,0.79,0.03,-0.07,1.06
231,0.93,0.70,0.85,0.03,-0.07,1.07
232,1.34,1.24,1.05,0.03,-0.07,1.06
233,1.53,1.08,1.39,0.03,-0.07,1.07
234,1.08,1.47,1.53,0.03,-0.06,1.07
235,0.98,1.53,1.13,0.03,-0.07,1.07
236,1.02,1.47,1.05,0.02,-0.07,1.06
237,0.53,1.50,1.34,0.02,-0.07,1.07
238,0.67,1.36,1.11,0.02,-0.07,1.07
239,0.75,1.40,0.96,0.02,-0.07,1.07
240,0.66,1.33,0.81,0.02,-0.07,1.08
241,-0.17,1.15,0.44,0.02,-0.07,1.06
242,-0.02,1.02,0.35,0.02,-0.07,1.06
243,0.56,0.92,0.89,0.02,-0.07,1.07
244,0.66,0.78,1.34,0.02,-0.07,1.07
245,0.72,0.47,1.21,0.02,-0.06,1.07
246,0.44,0.34,1.15,0.03,-0.06,1.06
247,0.31,0.00,1.48,0.02,-0.07,1.07
248,-0.24,-0.21,0.73,0.01,-0.06,1.07
249,0.11,-0.38,0.84,0.01,-0.06,1.07
250,-0.08,-0.44,1.11,0.03,-0.06,1.06
251,-0.12,-0.17,1.54,0.02,-0.06,1.06
252,0.06,-0.18,1.36,0.02,-0.07,1.05
253,0.24,0.08,1.31,0.03,-0.07,1.06
254,-0.09,0.09,1.04,0.03,-0.07,1.07
255,-0.24,-0.08,0.61,0.03,-0.07,1.06
256,0.21,0.24,1.21,0.03,-0.08,1.06
257,0.40,0.53,1.39,0.03,-0.07,1.06
258,0.43,0.78,1.44,0.04,-0.07,1.06
259,0.66,0.82,1.22,0.03,-0.07,1.07
260,0.72,1.19,1.60,0.03,-0.08,1.07
261,0.61,0.96,1.40,0.02,-0.07,1.08
262,0.35,0.73,0.98,0.02,-0.07,1.07
263,0.20,0.14,1.28,0.02,-0.07,1.06
264,0.02,0.32,1.08,0.02,-0.07,1.07
265,0.05,0.35,1.22,0.02,-0.07,1.07
266,0.20,0.29,1.19,0.03,-0.07,1.07
267,0.17,0.14,0.99,0.02,-0.06,1.06
268,-0.35,0.18,0.79,0.02,-0.06,1.07
269,-0.50,0.00,0.85,0.02,-0.07,1.07
270,-0.26,-0.06,1.07,0.02,-0.06,1.06
271,0.17,-0.03,0.96,0.03,-0.07,1.07
272,0.31,0.41,0.99,0.03,-0.07,1.07
273,0.34,-0.15,1.25,0.03,-0.06,1.05
274,0.40,0.49,1.53,0.04,-0.06,1.06
275,0.41,0.99,0.93,0.03,-0.07,1.06
276,-0.02,1.30,0.73,0.03,-0.07,1.06
277,0.06,1.33,0.98,0.02,-0.07,1.06
278,0.43,1.33,1.13,0.02,-0.07,1.07
279,0.70,1.27,1.11,0.02,-0.07,1.06
280,0.27,0.98,1.27,0.02,-0.07,1.07
281,0.29,0.64,1.30,0.02,-0.07,1.07
282,0.27,0.73,1.01,0.02,-0.07,1.09
283,0.43,0.56,1.18,0.02,-0.07,1.07
284,0.18,0.46,1.13,0.02,-0.07,1.07
285,0.14,0.02,0.73,0.02,-0.07,1.08
286,0.34,0.05,0.99,0.01,-0.07,1.06
287,0.15,0.08,1.44,0.02,-0.06,1.07
288,-0.02,0.29,1.31,0.03,-0.06,1.06
289,0.05,0.38,1.28,0.02,-0.06,1.06
290,-0.06,0.50,1.51,0.02,-0.07,1.06
291,-0.06,0.38,1.36,0.02,-0.07,1.06
292,0.06,0.70,1.44,0.03,-0.07,1.07
293,0.11,0.70,1.19,0.03,-0.07,1.07
294,-0.24,0.67,1.28,0.03,-0.06,1.06
295,-0.17,0.61,0.95,0.02,-0.07,1.07
296,-0.11,0.32,0.81,0.03,-0.06,1.06
297,-0.32,0.44,1.18,0.02,-0.06,1.06
298,-0.02,0.37,1.37,0.02,-0.06,1.07
299,0.46,0.56,1.51,0.03,-0.07,1.07
300,0.17,0.60,1.89,0.03,-0.07,1.08
301,0.17,0.26,1.48,0.02,-0.07,1.07
302,0.14,0.18,0.98,0.03,-0.07,1.07
303,0.02,0.37,1.08,0.02,-0.07,1.07
304,-0.17,0.38,1.04,0.02,-0.06,1.07
305,0.24,0.63,1.22,0.02,-0.07,1.06
306,0.85,1.01,1.79,0.03,-0.07,1.08
307,0.70,0.53,1.71,0.03,-0.07,1.07
308,0.55,0.72,1.18,0.03,-0.07,1.07
309,0.24,0.40,1.30,0.03,-0.07,1.07
310,0.40,0.35,1.57,0.02,-0.07,1.07
311,0.32,0.49,0.99,0.03,-0.07,1.06
312,0.38,0.70,0.79,0.02,-0.07,1.08
313,0.29,0.72,1.05,0.02,-0.07,1.07
314,0.11,0.99,1.11,0.03,-0.06,1.07
315,0.03,0.96,0.79,0.02,-0.06,1.07
316,0.02,0.67,0.87,0.02,-0.07,1.08
317,0.23,1.02,1.71,0.02,-0.07,1.07
318,0.14,0.99,1.60,0.02,-0.06,1.07
319,0.53,0.93,1.47,0.02,-0.07,1.07
320,0.66,0.92,2.14,0.02,-0.06,1.06
321,0.26,0.87,1.74,0.03,-0.07,1.08
322,0.03,0.73,1.08,0.02,-0.06,1.07
323,-0.02,0.20,1.33,0.03,-0.07,1.07
324,0.06,0.55,1.54,0.02,-0.07,1.07
325,0.12,0.34,1.27,0.02,-0.06,1.07
326,0.32,0.35,1.30,0.02,-0.07,1.07
327,-0.17,0.37,1.24,0.03,-0.06,1.07
328,0.00,0.21,1.28,0.02,-0.07,1.06
329,0.21,0.37,1.30,0.02,-0.08,1.07
330,0.03,0.56,1.53,0.02,-0.06,1.06
331,-0.06,0.40,1.05,0.03,-0.06,1.06
332,0.34,0.38,1.02,0.03,-0.07,1.06
333,0.34,0.34,0.89,0.03,-0.07,1.06
334,0.09,0.40,1.05,0.03,-0.06,1.07
335,0.58,0.73,0.79,0.02,-0.07,1.06
336,0.78,0.89,1.15,0.03,-0.07,1.07
337,0.55,0.63,1.24,0.02,-0.06,1.06
338,0.23,0.78,1.27,0.03,-0.07,1.07
339,0.32,0.79,1.48,0.02,-0.07,1.07
340,0.50,0.76,1.36,0.03,-0.07,1.06
341,0.17,1.11,1.19,0.02,-0.07,1.06
342,-0.06,0.72,0.78,0.01,-0.07,1.07
343,0.20,0.76,1.15,0.01,-0.07,1.07
344,0.17,0.63,1.39,0.02,-0.07,1.08
345,0.14,0.41,0.75,0.02,-0.07,1.07
346,0.14,0.64,1.10,0.02,-0.07,1.07
347,0.11,0.52,1.34,0.02,-0.06,1.07
348,0.03,0.09,1.24,0.02,-0.06,1.07
349,0.24,0.11,1.44,0.02,-0.06,1.07
350,0.24,-0.03,1.44,0.02,-0.06,1.06
351,0.02,0.12,1.07,0.02,-0.06,1.06
352,0.00,0.15,1.18,0.02,-0.07,1.06
353,0.37,0.24,1.36,0.03,-0.07,1.07
354,0.18,0.20,1.34,0.02,-0.07,1.06
355,0.15,0.27,0.85,0.02,-0.06,1.06
356,-0.06,0.09,0.87,0.02,-0.06,1.06
357,0.05,-0.09,1.57,0.02,-0.06,1.06
358,0.46,0.15,1.74,0.02,-0.06,1.07
359,0.49,0.00,1.66,0.03,-0.07,1.06
360,-0.03,0.23,1.44,0.03,-0.06,1.07
361,-0.14,0.05,1.24,0.03,-0.08,1.06
362,-0.08,-0.17,0.99,0.03,-0.07,1.07
363,-0.21,-0.08,1.01,0.03,-0.07,1.06
364,-0.12,0.20,1.13,0.03,-0.06,1.06
365,0.31,0.44,1.04,0.03,-0.07,1.06
366,0.29,0.76,1.04,0.03,-0.07,1.07
367,-0.24,0.61,0.99,0.03,-0.06,1.07
368,-0.14,0.84,0.70,0.03,-0.06,1.06
369,0.02,0.81,0.96,0.03,-0.07,1.05
370,0.29,1.42,1.07,0.03,-0.06,1.06
371,0.26,1.22,1.13,0.02,-0.07,1.08
372,0.52,1.30,1.24,0.02,-0.07,1.07
373,0.24,1.27,0.93,0.01,-0.07,1.07
374,-0.05,0.93,0.98,0.02,-0.07,1.07
375,0.05,0.72,0.56,0.02,-0.07,1.08
376,-0.32,0.60,0.72,0.01,-0.07,1.07
377,-0.41,0.35,1.13,0.01,-0.06,1.07
378,0.27,0.12,1.44,0.01,-0.07,1.06
379,0.49,0.17,1.60,0.02,-0.07,1.07
380,-0.15,0.02,0.92,0.02,-0.07,1.08
381,-0.31,-0.12,1.01,0.02,-0.06,1.07
382,-0.31,-0.17,1.37,0.02,-0.07,1.08
383,-0.14,0.02,1.34,0.02,-0.07,1.07
384,-0.03,0.02,1.48,0.03,-0.07,1.07
385,0.12,0.02,1.10,0.02,-0.07,1.08
386,0.11,-0.05,1.39,0.03,-0.06,1.07
387,0.21,0.14,1.66,0.03,-0.07,1.06
388,0.27,0.81,1.28,0.03,-0.07,1.06
389,0.34,0.66,1.40,0.03,-0.07,1.07
390,0.43,0.82,1.22,0.03,-0.07,1.07
391,-0.05,1.15,0.89,0.03,-0.07,1.07
392,0.08,0.82,0.87,0.02,-0.07,1.06
393,0.14,0.73,0.76,0.02,-0.07,1.07
394,0.02,0.81,0.73,0.02,-0.07,1.07
395,0.35,0.38,1.07,0.02,-0.07,1.07
396,0.26,0.53,1.24,0.02,-0.07,1.07
397,-0.03,0.21,1.25,0.02,-0.06,1.07
398,-0.06,0.50,0.99,0.02,-0.07,1.06
399,0.12,0.64,1.16,0.01,-0.06,1.07
400,-0.09,0.21,1.54,0.02,-0.07,1.06
401,0.17,0.12,1.19,0.02,-0.07,1.07
402,0.34,0.18,1.33,0.02,-0.07,1.07
403,0.26,0.20,1.37,0.02,-0.07,1.07
404,0.40,-0.03,0.84,0.02,-0.07,1.07
405,0.09,0.29,0.89,0.02,-0.07,1.06
406,0.00,0.29,0.93,0.03,-0.07,1.06
407,-0.20,0.53,1.02,0.03,-0.06,1.06
408,-0.05,0.67,0.90,0.02,-0.07,1.06
409,0.34,0.72,1.31,0.03,-0.07,1.06
410,0.12,0.81,1.28,0.02,-0.06,1.07
411,0.11,0.76,0.84,0.03,-0.07,1.07
412,0.08,0.78,0.98,0.02,-0.07,1.06
413,0.03,0.69,1.28,0.02,-0.07,1.06
414,0.18,0.46,1.15,0.02,-0.07,1.07
415,0.27,0.58,1.04,0.02,-0.06,1.07
416,0.23,0.50,1.08,0.02,-0.06,1.07
417,-0.03,0.34,1.10,0.02,-0.06,1.06
418,-0.14,0.49,0.76,0.03,-0.06,1.07
419,0.14,0.47,1.45,0.02,-0.07,1.07
420,-0.05,0.15,1.56,0.02,-0.06,1.07
421,0.26,0.09,1.21,0.02,-0.07,1.07
422,0.12,0.03,1.05,0.02,-0.07,1.08
423,-0.06,0.14,1.13,0.02,-0.07,1.07
424,-0.18,0.29,1.05,0.02,-0.06,1.07
425,0.06,0.00,1.10,0.02,-0.07,1.07
426,0.12,0.52,1.28,0.03,-0.07,1.06
427,-0.20,0.50,1.25,0.03,-0.07,1.06
428,0.03,0.23,1.28,0.02,-0.07,1.07
429,0.40,0.82,1.37,0.03,-0.07,1.07
430,-0.05,1.04,1.10,0.03,-0.07,1.07
431,0.15,0.89,0.95,0.02,-0.07,1.07
432,0.38,0.75,0.89,0.02,-0.08,1.07
433,0.08,0.69,1.28,0.03,-0.06,1.08
434,0.31,0.64,1.25,0.02,-0.07,1.07
435,1.04,0.66,1.51,0.02,-0.07,1.07
436,0.81,0.58,1.68,0.03,-0.06,1.07
437,0.23,0.41,1.39,0.02,-0.06,1.06
438,0.14,0.27,1.04,0.02,-0.06,1.07
439,-0.14,0.12,1.10,0.01,-0.07,1.06
440,-0.27,0.37,1.21,0.02,-0.06,1.07
441,-0.03,0.46,0.98,0.01,-0.07,1.07
442,0.02,0.34,1.10,0.02,-0.07,1.06
443,0.03,0.31,1.31,0.02,-0.07,1.07
444,-0.34,0.37,1.10,0.01,-0.07,1.06
445,-0.27,0.24,0.49,0.02,-0.07,1.07
446,-0.73,0.15,0.90,0.02,-0.06,1.08
447,-0.56,0.05,0.87,0.02,-0.07,1.07
448,-0.43,-0.27,0.47,0.02,-0.07,1.07
449,-0.34,-0.23,0.95,0.02,-0.07,1.06
450,-0.09,0.26,1.34,0.03,-0.07,1.05
451,0.37,0.60,0.96,0.03,-0.07,1.06
452,0.35,0.50,0.82,0.02,-0.08,1.06
453,-0.05,0.66,0.89,0.02,-0.07,1.07
454,-0.03,0.37,0.47,0.02,-0.06,1.07
455,-0.05,0.50,0.81,0.02,-0.06,1.07
456,-0.15,0.32,1.34,0.02,-0.07,1.07
457,-0.09,0.44,1.15,0.01,-0.06,1.06
458,-0.26,0.18,1.16,0.02,-0.06,1.08
459,-0.53,-0.23,1.51,0.02,-0.06,1.06
460,-0.92,-0.14,1.16,0.01,-0.07,1.07
461,-0.63,-0.23,1.04,0.01,-0.06,1.07
462,-0.63,-0.24,1.27,0.02,-0.07,1.07
463,-0.50,-0.21,1.66,0.03,-0.07,1.06
464,-0.29,0.06,1.22,0.03,-0.07,1.07
465,-0.12,0.12,1.08,0.03,-0.07,1.06
466,-0.43,0.24,0.89,0.03,-0.07,1.06
467,-0.53,0.66,0.55,0.02,-0.07,1.05
468,-0.31,0.87,0.52,0.03,-0.07,1.06
469,-0.17,0.89,0.66,0.02,-0.07,1.05
470,-0.21,1.18,0.55,0.02,-0.07,1.06
471,-0.14,1.56,0.37,0.02,-0.07,1.07
472,0.00,1.48,0.75,0.02,-0.07,1.07
473,-0.09,1.16,0.87,0.01,-0.07,1.07
474,0.31,1.24,0.84,0.01,-0.07,1.07
475,0.44,0.75,0.84,0.01,-0.06,1.07
476,-0.05,0.27,1.08,0.01,-0.06,1.07
477,-0.18,0.14,0.99,0.01,-0.06,1.07
478,-0.03,0.12,0.79,0.01,-0.07,1.07
479,-0.08,-0.15,1.51,0.01,-0.06,1.06
480,-0.08,0.14,1.21,0.02,-0.07,1.07
481,-0.03,0.12,1.47,0.02,-0.07,1.07
482,-0.11,-0.29,1.65,0.02,-0.06,1.06
483,-0.41,-0.14,0.95,0.03,-0.07,1.07
484,-0.70,-0.12,0.56,0.02,-0.07,1.06
485,-0.63,-0.20,1.07,0.03,-0.07,1.06
486,-0.27,0.06,1.60,0.03,-0.07,1.07
487,0.00,0.38,1.15,0.03,-0.07,1.06
488,0.06,0.55,1.30,0.04,-0.07,1.06
489,-0.23,0.46,1.68,0.03,-0.07,1.06
490,-0.02,0.73,1.36,0.03,-0.07,1.06
491,0.18,0.78,1.24,0.03,-0.08,1.07
492,0.20,0.63,1.05,0.02,-0.07,1.07
493,-0.12,0.70,1.04,0.03,-0.07,1.07
494,0.05,0.82,0.66,0.02,-0.07,1.07
495,0.02,0.69,1.51,0.02,-0.07,1.07
496,0.26,0.60,1.21,0.02,-0.07,1.07
497,-0.18,0.58,0.50,0.02,-0.07,1.07
498,-0.08,-0.09,0.72,0.01,-0.07,1.07
499,-0.40,0.09,1.22,0.01,-0.06,1.07
500,-0.60,0.03,0.82,0.01,-0.07,1.07
501,-0.29,0.23,0.90,0.01,-0.07,1.06
502,-0.31,0.14,1.22,0.02,-0.07,1.06
503,-0.46,-0.34,0.95,0.02,-0.06,1.08
504,-0.29,0.06,0.58,0.02,-0.07,1.06
505,-0.24,-0.23,1.02,0.02,-0.07,1.06
506,-0.38,-0.06,0.87,0.02,-0.07,1.05
507,0.23,0.12,0.89,0.03,-0.07,1.06
508,0.34,0.41,1.10,0.02,-0.07,1.06
509,0.12,0.61,1.05,0.03,-0.07,1.06
510,0.31,1.05,1.28,0.02,-0.07,1.06
511,0.29,0.90,1.34,0.02,-0.07,1.06
512,0.53,0.75,1.39,0.02,-0.07,1.07
513,0.34,0.41,1.21,0.02,-0.07,1.07
514,0.38,0.52,0.78,0.02,-0.06,1.06
515,0.12,0.26,1.01,0.02,-0.07,1.07
516,-0.12,0.43,0.82,0.02,-0.06,1.07
517,-0.34,0.37,0.66,0.02,-0.06,1.06
518,-0.05,0.52,1.04,0.02,-0.07,1.06
519,0.08,0.32,1.30,0.02,-0.07,1.06
520,0.24,0.21,0.98,0.02,-0.07,1.07
521,-0.05,0.21,0.66,0.02,-0.07,1.08
522,-0.34,-0.17,0.55,0.02,-0.07,1.08
523,0.00,0.08,0.69,0.03,-0.07,1.07
524,0.08,0.40,0.66,0.03,-0.07,1.06
525,0.32,0.43,1.10,0.02,-0.07,1.06
526,0.06,0.63,1.24,0.02,-0.07,1.07
527,0.12,0.43,0.87,0.02,-0.07,1.06
528,0.55,0.47,1.34,0.02,-0.08,1.06
529,0.11,0.44,1.47,0.02,-0.07,1.07
530,-0.02,0.78,0.81,0.02,-0.07,1.07
531,0.08,0.47,0.95,0.02,-0.07,1.06
532,-0.03,0.29,1.51,0.02,-0.07,1.06
533,-0.40,0.58,1.27,0.02,-0.08,1.06
534,0.08,0.67,1.01,0.02,-0.06,1.07
535,0.35,0.47,1.44,0.02,-0.07,1.07
536,-0.18,0.55,1.18,0.01,-0.07,1.06
537,-0.47,0.11,0.49,0.02,-0.07,1.06
538,-0.05,0.12,1.18,0.02,-0.07,1.07
539,-0.02,0.24,1.31,0.02,-0.07,1.07
540,0.06,0.24,0.79,0.02,-0.07,1.07
541,0.11,0.20,0.93,0.03,-0.07,1.07
542,0.24,0.15,1.39,0.03,-0.07,1.06
543,0.27,0.12,1.33,0.02,-0.08,1.07
544,0.69,0.37,1.15,0.03,-0.08,1.06
545,0.24,0.29,1.15,0.02,-0.07,1.06
546,-0.20,0.31,1.37,0.02,-0.07,1.06
547,-0.18,0.38,0.90,0.02,-0.07,1.06
548,-0.03,0.38,1.11,0.02,-0.07,1.06
549,-0.44,0.26,0.99,0.03,-0.07,1.06
550,-0.56,0.09,0.56,0.02,-0.07,1.06
551,-0.15,0.20,0.58,0.02,-0.07,1.06
552,-0.35,-0.03,0.81,0.02,-0.07,1.07
553,-0.14,0.21,0.98,0.03,-0.07,1.07
554,0.52,0.47,1.05,0.02,-0.07,1.07
555,0.46,0.15,1.18,0.03,-0.07,1.06
556,0.05,0.69,1.11,0.02,-0.07,1.06
557,0.08,0.56,0.85,0.02,-0.07,1.07
558,0.40,0.44,1.44,0.02,-0.07,1.07
559,0.35,0.08,1.53,0.02,-0.06,1.07
560,-0.08,-0.18,0.98,0.02,-0.06,1.07
561,-0.12,-0.38,0.96,0.02,-0.07,1.07
562,-0.61,-0.56,1.15,0.01,-0.06,1.06
563,-0.60,-0.26,0.92,0.03,-0.07,1.06
564,-0.23,-0.15,0.81,0.03,-0.07,1.07
565,-0.12,-0.29,1.08,0.03,-0.07,1.05
566,-0.27,0.29,1.40,0.03,-0.07,1.05
567,0.06,0.26,1.15,0.03,-0.07,1.06
568,0.24,0.40,1.34,0.03,-0.08,1.06
569,0.17,0.87,1.34,0.03,-0.07,1.07
570,-0.17,0.81,0.92,0.03,-0.07,1.06
571,0.08,1.28,1.11,0.03,-0.07,1.07
572,0.31,1.33,1.05,0.03,-0.06,1.06
573,0.31,1.08,1.05,0.02,-0.07,1.05
574,0.46,1.19,0.82,0.02,-0.07,1.07
575,0.24,0.90,1.27,0.01,-0.07,1.06
576,-0.08,0.99,1.24,0.01,-0.06,1.07
577,0.35,0.75,1.45,0.01,-0.07,1.06
578,0.47,0.64,1.69,0.01,-0.07,1.07
579,0.11,0.31,1.83,0.01,-0.06,1.07
580,0.11,-0.03,1.07,0.01,-0.07,1.07
581,0.02,-0.24,1.27,0.02,-0.07,1.07
582,-0.12,-0.11,1.33,0.02,-0.07,1.07
583,-0.38,0.15,0.98,0.02,-0.07,1.06
584,-0.41,0.26,0.75,0.02,-0.07,1.06
585,-0.67,0.08,1.22,0.02,-0.07,1.06
586,-0.52,-0.03,1.10,0.02,-0.07,1.06
587,-0.37,0.34,0.64,0.02,-0.07,1.07
588,-0.55,-0.21,0.95,0.03,-0.07,1.07
589,-0.72,0.23,0.63,0.03,-0.07,1.07
590,-0.66,0.17,0.75,0.03,-0.08,1.07
591,-0.06,0.43,0.87,0.03,-0.07,1.06
592,-0.15,0.56,1.05,0.03,-0.07,1.07
593,0.46,0.53,1.21,0.03,-0.07,1.07
594,1.01,0.96,1.57,0.03,-0.07,1.06
595,0.79,0.96,1.85,0.02,-0.08,1.07
596,0.20,0.64,1.02,0.02,-0.07,1.07
597,0.46,0.70,0.67,0.02,-0.08,1.07
598,0.43,0.49,1.18,0.01,-0.07,1.07
599,0.08,0.38,1.25,0.02,-0.07,1.07
600,0.17,-0.02,0.98,0.01,-0.07,1.07
601,0.14,0.41,1.02,0.02,-0.08,1.08
602,-0.15,0.08,1.19,0.02,-0.07,1.07
603,-0.31,-0.05,0.60,0.02,-0.07,1.08
604,-0.12,0.15,1.13,0.02,-0.08,1.07
605,-0.02,0.12,1.37,0.02,-0.07,1.06
606,0.09,0.15,1.16,0.03,-0.07,1.07
607,0.21,0.34,0.95,0.03,-0.08,1.06
608,-0.03,0.37,1.02,0.03,-0.07,1.06
609,-0.24,0.46,0.92,0.04,-0.07,1.05
610,0.20,1.18,0.70,0.03,-0.07,1.06
611,0.37,0.93,0.70,0.02,-0.07,1.06
612,0.37,0.98,1.13,0.02,-0.07,1.07
613,0.06,1.04,0.64,0.02,-0.07,1.07
614,0.26,1.02,0.49,0.02,-0.08,1.06
615,0.31,0.89,1.24,0.02,-0.07,1.07
616,0.50,0.78,1.02,0.02,-0.07,1.07
617,0.81,0.73,0.82,0.02,-0.07,1.07
618,0.53,0.55,1.27,0.01,-0.08,1.07
619,0.31,0.40,0.87,0.01,-0.06,1.06
620,0.26,0.56,0.69,0.02,-0.07,1.07
621,0.12,-0.06,1.05,0.01,-0.07,1.07
622,-0.05,0.05,1.27,0.02,-0.06,1.06
623,-0.09,-0.21,0.76,0.02,-0.07,1.07
624,0.09,-0.17,1.04,0.01,-0.07,1.07
625,0.11,-0.15,1.51,0.03,-0.07,1.06
626,-0.11,0.26,1.05,0.02,-0.07,1.07
627,0.06,0.14,0.73,0.02,-0.08,1.06
628,0.15,0.34,1.45,0.02,-0.07,1.07
629,0.21,0.49,1.82,0.03,-0.07,1.06
630,0.44,0.52,1.37,0.03,-0.08,1.07
631,0.21,0.58,1.51,0.03,-0.08,1.07
632,0.08,0.35,1.48,0.03,-0.07,1.06
633,0.46,0.60,1.01,0.02,-0.07,1.06
634,0.79,0.63,1.19,0.02,-0.07,1.06
635,0.55,0.69,1.44,0.02,-0.07,1.06
636,0.27,0.72,1.21,0.02,-0.07,1.07
637,0.35,0.93,0.98,0.01,-0.07,1.08
638,-0.08,0.56,1.11,0.01,-0.06,1.07
639,-0.12,0.50,1.04,0.01,-0.06,1.07
640,0.31,0.32,1.34,0.02,-0.07,1.06
641,0.58,0.20,1.30,0.02,-0.08,1.08
642,0.17,-0.02,1.25,0.02,-0.07,1.07
643,-0.11,0.00,0.96,0.02,-0.07,1.06
644,0.06,0.08,1.48,0.02,-0.07,1.07
645,0.21,0.14,1.37,0.03,-0.07,1.06
646,0.29,0.14,0.95,0.02,-0.07,1.07
647,0.18,0.05,0.61,0.02,-0.08,1.06
648,-0.14,0.11,0.87,0.02,-0.07,1.06
649,-0.17,-0.15,0.70,0.02,-0.07,1.07
650,-0.11,0.06,0.31,0.02,-0.07,1.07
651,0.06,-0.05,0.84,0.02,-0.07,1.07
652,0.26,0.26,1.37,0.03,-0.07,1.06
653,0.63,0.55,1.04,0.03,-0.07,1.06
654,0.81,0.61,1.28,0.02,-0.08,1.07
655,0.27,0.46,1.40,0.02,-0.07,1.07
656,0.34,0.64,1.13,0.02,-0.07,1.06
657,0.34,0.55,0.96,0.02,-0.07,1.07
658,0.14,0.34,1.13,0.02,-0.07,1.06
659,-0.31,0.03,0.76,0.02,-0.07,1.07
660,0.06,0.17,0.63,0.01,-0.08,1.07
661,0.12,0.05,0.96,0.02,-0.07,1.08
662,-0.27,-0.15,0.79,0.02,-0.07,1.07
663,0.11,-0.09,0.44,0.03,-0.07,1.07
664,0.24,0.15,0.78,0.02,-0.08,1.07
665,0.08,-0.05,1.16,0.02,-0.07,1.06
666,0.43,0.26,0.96,0.02,-0.06,1.06
667,0.84,0.27,1.24,0.03,-0.07,1.05
668,0.56,-0.06,1.33,0.02,-0.07,1.06
669,0.00,-0.03,0.85,0.02,-0.06,1.07
670,0.03,-0.41,0.99,0.02,-0.06,1.07
671,-0.09,-0.35,1.04,0.02,-0.07,1.08
672,0.00,-0.24,1.28,0.02,-0.07,1.07
673,-0.06,-0.27,0.81,0.02,-0.07,1.07
674,0.03,-0.06,0.98,0.02,-0.07,1.07
675,-0.09,-0.27,1.31,0.02,-0.08,1.07
676,0.06,-0.12,0.89,0.02,-0.08,1.07
677,0.46,-0.02,0.95,0.03,-0.07,1.07
678,0.18,-0.03,1.01,0.03,-0.07,1.06
679,0.32,0.31,0.87,0.03,-0.07,1.06
680,0.43,0.66,0.67,0.03,-0.07,1.06
681,0.17,0.90,0.81,0.03,-0.07,1.06
682,-0.15,0.99,0.70,0.02,-0.06,1.06
683,0.37,0.93,0.76,0.02,-0.07,1.06
684,0.64,1.19,1.24,0.02,-0.07,1.07
685,0.31,1.04,1.05,0.02,-0.07,1.07
686,0.12,1.02,0.85,0.02,-0.07,1.06
687,0.35,0.61,0.99,0.01,-0.07,1.07
688,0.55,0.55,1.10,0.02,-0.07,1.07
689,0.15,0.21,0.69,0.02,-0.06,1.07
690,0.29,-0.11,0.76,0.01,-0.06,1.07
691,0.03,-0.32,0.72,0.02,-0.06,1.06
692,-0.21,-0.12,1.08,0.02,-0.07,1.06
693,-0.23,0.11,1.10,0.02,-0.06,1.06
694,0.29,-0.24,1.36,0.02,-0.07,1.06
695,-0.06,0.24,1.25,0.02,-0.07,1.08
696,-0.38,-0.24,1.05,0.02,-0.07,1.07
697,-0.11,0.17,1.07,0.02,-0.07,1.06
698,-0.43,0.26,1.18,0.03,-0.07,1.06
699,-0.38,0.37,1.08,0.03,-0.06,1.06
700,-0.38,0.41,0.82,0.02,-0.07,1.07
701,-0.23,0.55,0.96,0.03,-0.07,1.07
702,-0.15,0.66,1.16,0.03,-0.07,1.07
703,0.41,0.58,0.96,0.02,-0.07,1.06
704,0.89,0.44,1.31,0.02,-0.08,1.07
705,0.31,0.47,1.50,0.02,-0.07,1.06
706,0.26,0.12,0.64,0.02,-0.07,1.07
707,0.23,0.58,0.73,0.02,-0.07,1.07
708,-0.03,0.35,1.33,0.02,-0.07,1.05
709,0.09,0.56,1.08,0.02,-0.07,1.07
710,0.18,0.43,0.61,0.02,-0.07,1.07
711,-0.02,0.24,0.85,0.02,-0.07,1.06
712,-0.47,0.56,0.84,0.03,-0.07,1.06
713,-0.26,0.38,0.46,0.02,-0.07,1.07
714,-0.12,0.32,0.64,0.02,-0.08,1.07
715,-0.21,0.44,0.92,0.03,-0.07,1.06
716,0.03,0.49,0.52,0.02,-0.07,1.07
717,0.26,0.55,0.50,0.02,-0.08,1.06
718,0.02,0.76,0.90,0.03,-0.07,1.06
719,-0.06,0.63,0.58,0.02,-0.07,1.07
720,0.26,0.70,0.78,0.02,-0.07,1.08
721,0.20,0.82,1.37,0.02,-0.06,1.07
722,0.24,0.63,1.25,0.02,-0.07,1.06
723,0.14,0.76,0.69,0.02,-0.07,1.06
724,0.11,0.43,0.85,0.01,-0.07,1.07
725,0.02,0.00,1.01,0.02,-0.06,1.06
726,0.02,0.26,0.75,0.01,-0.07,1.07
727,0.02,0.38,0.76,0.02,-0.07,1.08
728,-0.14,0.37,1.15,0.01,-0.07,1.06
729,0.15,0.18,0.99,0.02,-0.07,1.07
730,0.24,0.34,1.04,0.02,-0.08,1.07
731,0.02,0.00,1.31,0.02,-0.07,1.07
732,-0.29,0.35,1.11,0.02,-0.07,1.07
733,0.17,0.26,1.05,0.02,-0.07,1.06
734,0.26,0.52,0.96,0.02,-0.08,1.07
735,-0.17,-0.15,0.93,0.02,-0.07,1.07
736,-0.09,0.47,0.38,0.02,-0.07,1.06
737,0.12,0.24,0.46,0.03,-0.07,1.07
738,-0.09,0.47,0.55,0.03,-0.07,1.06
739,-0.27,0.81,0.38,0.02,-0.07,1.07
740,0.06,0.60,0.73,0.02,-0.07,1.06
741,0.23,0.66,1.22,0.02,-0.07,1.07
742,0.11,0.61,1.04,0.02,-0.07,1.07
743,0.09,0.43,0.87,0.02,-0.07,1.07
744,0.34,0.63,1.30,0.02,-0.07,1.08
745,0.20,0.40,1.74,0.02,-0.07,1.06
746,0.34,0.35,1.30,0.02,-0.07,1.07
747,0.18,0.50,1.18,0.02,-0.07,1.06
748,-0.18,0.20,1.24,0.02,-0.07,1.07
749,-0.38,0.37,0.78,0.01,-0.07,1.07
750,-0.03,0.26,0.92,0.02,-0.07,1.07
751,-0.05,-0.05,0.84,0.01,-0.07,1.07
752,-0.35,-0.20,0.69,0.02,-0.07,1.07
753,-0.43,-0.35,0.29,0.02,-0.07,1.07
754,-0.40,-0.21,0.38,0.02,-0.07,1.07
755,-0.20,0.14,0.95,0.03,-0.07,1.06
756,0.40,0.31,0.87,0.02,-0.07,1.06
757,0.40,0.43,0.89,0.02,-0.07,1.06
758,0.12,0.34,1.11,0.02,-0.07,1.06
759,0.08,0.23,1.19,0.03,-0.08,1.08
760,0.72,0.26,1.25,0.02,-0.07,1.08
761,0.50,0.08,1.45,0.02,-0.07,1.07
762,0.00,-0.17,1.22,0.02,-0.07,1.06
763,0.09,0.05,0.52,0.02,-0.07,1.07
764,0.38,-0.02,1.27,0.03,-0.07,1.06
765,0.00,0.53,1.19,0.03,-0.07,1.06
766,0.02,0.67,0.63,0.02,-0.06,1.07
767,0.34,0.60,1.01,0.02,-0.07,1.07
768,0.35,0.46,1.42,0.02,-0.07,1.06
769,0.09,0.03,1.05,0.02,-0.06,1.07
770,0.15,0.37,0.61,0.03,-0.07,1.07
771,0.24,0.35,1.02,0.02,-0.07,1.07
772,-0.29,0.05,1.01,0.02,-0.07,1.07
773,-0.17,0.44,0.55,0.02,-0.07,1.07
774,0.20,0.17,0.61,0.02,-0.07,1.07
775,0.27,-0.02,1.07,0.02,-0.07,1.07
776,0.24,0.20,0.85,0.02,-0.07,1.07
777,0.53,-0.03,0.55,0.03,-0.07,1.07
778,0.52,-0.12,1.08,0.02,-0.07,1.06
779,0.18,-0.23,0.93,0.02,-0.07,1.07
780,0.17,0.02,1.08,0.02,-0.07,1.07
781,0.41,-0.27,1.45,0.02,-0.07,1.07
782,0.05,-0.31,1.33,0.02,-0.07,1.07
783,-0.27,-0.17,0.58,0.03,-0.07,1.06
784,-0.38,-0.34,0.64,0.03,-0.07,1.06
785,-0.53,-0.31,0.78,0.03,-0.07,1.06
786,-0.46,0.08,0.38,0.03,-0.07,1.06
787,-0.24,0.06,0.72,0.03,-0.07,1.06
788,0.21,0.08,1.51,0.02,-0.07,1.06
789,0.53,0.41,1.22,0.03,-0.07,1.06
790,0.53,0.41,0.93,0.03,-0.07,1.07
791,0.34,0.47,0.92,0.02,-0.07,1.07
792,0.21,0.14,1.01,0.02,-0.07,1.06
793,0.24,0.58,0.72,0.03,-0.07,1.06
794,0.53,0.76,1.02,0.03,-0.07,1.06
795,0.12,1.22,1.30,0.03,-0.07,1.06
796,0.17,1.16,0.79,0.03,-0.07,1.06
797,0.46,1.07,0.84,0.01,-0.07,1.07
798,0.14,0.63,1.16,0.02,-0.07,1.08
799,-0.06,0.35,0.81,0.02,-0.07,1.07
800,-0.17,0.18,0.37,0.02,-0.07,1.07
801,-0.05,-0.05,0.72,0.02,-0.07,1.07
802,-0.17,0.00,1.16,0.02,-0.07,1.07
803,0.11,0.05,1.04,0.02,-0.07,1.07
804,0.20,0.03,0.82,0.02,-0.07,1.06
805,-0.05,-0.34,1.02,0.02,-0.07,1.07
806,-0.29,-0.08,0.43,0.02,-0.07,1.06
807,-0.17,0.32,0.60,0.02,-0.08,1.07
808,-0.09,0.06,1.02,0.02,-0.07,1.06
809,-0.11,0.41,1.24,0.03,-0.07,1.06
810,0.11,0.46,0.99,0.03,-0.07,1.06
811,0.05,0.37,1.56,0.02,-0.08,1.07
812,0.14,0.53,1.60,0.02,-0.07,1.06
813,0.12,0.31,0.87,0.02,-0.07,1.07
814,0.37,0.60,1.08,0.03,-0.07,1.06
815,0.34,0.38,1.39,0.03,-0.06,1.06
816,0.35,0.32,1.25,0.02,-0.07,1.06
817,0.53,0.55,1.10,0.03,-0.07,1.06
818,0.23,0.50,1.34,0.02,-0.07,1.07
819,-0.20,0.69,1.18,0.02,-0.07,1.07
820,-0.03,0.20,0.76,0.01,-0.07,1.06
821,0.35,0.31,0.96,0.02,-0.08,1.07
822,0.09,0.32,1.02,0.03,-0.07,1.06
823,0.05,0.29,0.89,0.02,-0.07,1.07
824,0.09,0.15,0.81,0.02,-0.07,1.07
825,-0.14,0.32,1.05,0.02,-0.07,1.06
826,-0.18,0.43,0.98,0.02,-0.07,1.06
827,0.31,0.29,1.04,0.02,-0.08,1.06
828,0.66,0.31,1.73,0.03,-0.07,1.06
829,0.35,0.37,1.45,0.02,-0.07,1.07
830,0.47,0.70,0.93,0.02,-0.07,1.06
831,0.43,0.41,1.07,0.02,-0.08,1.08
832,0.08,0.31,0.92,0.02,-0.07,1.07
833,0.14,0.58,0.81,0.02,-0.07,1.06
834,0.49,0.56,1.08,0.02,-0.07,1.06
835,0.17,0.47,1.13,0.02,-0.07,1.07
836,-0.23,0.40,0.66,0.02,-0.07,1.06
837,-0.40,0.34,0.43,0.02,-0.07,1.07
838,-0.61,0.09,0.82,0.02,-0.07,1.07
839,-0.34,0.15,1.22,0.02,-0.07,1.07
840,0.21,0.40,1.11,0.03,-0.07,1.06
841,0.18,0.49,1.37,0.02,-0.07,1.07
842,-0.03,0.27,1.34,0.02,-0.07,1.06
843,-0.06,0.20,1.02,0.02,-0.07,1.06
844,0.14,0.24,1.07,0.02,-0.07,1.07
845,-0.12,0.06,1.21,0.03,-0.07,1.05
846,-0.14,0.43,0.98,0.03,-0.07,1.06
847,0.40,0.67,0.82,0.03,-0.07,1.05
848,0.15,0.55,1.28,0.02,-0.07,1.06
849,-0.31,0.46,0.93,0.02,-0.07,1.07
850,0.03,0.41,0.64,0.02,-0.07,1.07
851,0.11,0.64,0.98,0.02,-0.08,1.06
852,-0.02,0.52,0.99,0.02,-0.06,1.06
853,0.14,0.79,0.53,0.01,-0.08,1.06
854,-0.06,0.49,0.60,0.02,-0.07,1.07
855,-0.24,0.63,1.22,0.02,-0.07,1.07
856,-0.08,0.64,1.47,0.02,-0.07,1.06
857,0.49,0.92,1.19,0.02,-0.07,1.07
858,0.49,0.47,1.53,0.02,-0.08,1.07
859,0.11,0.37,1.42,0.02,-0.07,1.07
860,0.32,0.41,1.42,0.02,-0.08,1.07
861,0.52,0.40,1.73,0.02,-0.07,1.07
862,0.32,0.21,1.62,0.02,-0.07,1.06
863,0.21,0.05,1.16,0.03,-0.07,1.07
864,0.09,0.44,1.08,0.03,-0.07,1.07
865,-0.14,0.31,1.39,0.03,-0.07,1.06
866,-0.09,0.55,1.05,0.03,-0.06,1.06
867,0.31,0.14,0.63,0.02,-0.08,1.07
868,0.32,0.31,0.95,0.02,-0.08,1.07
869,0.03,0.55,1.10,0.02,-0.07,1.07
870,0.00,0.47,0.66,0.03,-0.07,1.07
871,-0.08,0.27,0.70,0.02,-0.07,1.05
872,-0.41,0.72,1.22,0.03,-0.07,1.06
873,-0.20,0.87,0.79,0.02,-0.07,1.07
874,0.69,0.56,1.60,0.03,-0.08,1.07
875,0.73,0.55,1.86,0.03,-0.07,1.07
876,0.11,0.64,1.05,0.03,-0.07,1.06
877,0.14,0.75,0.61,0.02,-0.07,1.07
878,-0.17,0.60,0.98,0.03,-0.07,1.07
879,0.03,0.76,1.07,0.02,-0.07,1.06
880,0.21,1.07,0.92,0.01,-0.07,1.07
881,0.53,1.10,1.16,0.02,-0.08,1.06
882,0.49,0.89,1.53,0.02,-0.07,1.07
883,0.50,0.49,1.18,0.01,-0.07,1.07
884,0.61,0.40,1.28,0.01,-0.06,1.07
885,0.15,0.29,1.39,0.01,-0.07,1.06
886,-0.23,0.18,1.13,0.01,-0.07,1.06
887,0.11,0.20,0.84,0.01,-0.07,1.06
888,0.02,0.02,1.54,0.02,-0.08,1.07
889,-0.58,-0.06,1.53,0.02,-0.07,1.06
890,-0.40,0.06,0.72,0.01,-0.08,1.08
891,-0.31,-0.21,1.15,0.02,-0.08,1.06
892,-0.73,-0.02,1.36,0.02,-0.08,1.07
893,-0.69,0.11,0.93,0.03,-0.07,1.07
894,-0.14,0.15,1.08,0.03,-0.08,1.07
895,-0.24,0.15,1.45,0.03,-0.07,1.07
896,-0.58,0.37,0.85,0.02,-0.07,1.06
897,-0.56,0.35,0.49,0.03,-0.07,1.07
898,-0.69,0.92,0.95,0.03,-0.07,1.06
899,-0.34,0.84,0.82,0.03,-0.07,1.07
900,-0.23,1.08,0.78,0.03,-0.07,1.06
901,-0.12,0.75,0.40,0.03,-0.08,1.07
902,0.21,1.18,1.36,0.02,-0.08,1.06
903,0.31,0.81,0.96,0.02,-0.07,1.08
904,0.69,0.96,0.41,0.02,-0.08,1.08
905,0.03,0.56,1.34,0.02,-0.08,1.06
906,0.03,0.32,0.78,0.02,-0.07,1.06
907,0.15,0.52,0.79,0.02,-0.07,1.07
908,0.32,0.78,1.07,0.02,-0.07,1.06
909,0.21,0.64,1.42,0.02,-0.07,1.06
910,-0.08,0.60,1.19,0.02,-0.06,1.06
911,0.23,0.24,1.37,0.02,-0.08,1.07
912,0.12,0.26,1.73,0.02,-0.07,1.08
913,-0.37,0.29,0.93,0.01,-0.08,1.06
914,-0.11,-0.26,0.90,0.02,-0.07,1.06
915,-0.03,0.38,1.63,0.03,-0.07,1.06
916,0.08,0.41,1.13,0.01,-0.07,1.06
917,0.50,0.63,1.28,0.02,-0.08,1.07
918,0.52,0.60,1.37,0.02,-0.07,1.06
919,0.40,0.73,1.47,0.02,-0.07,1.07
920,0.43,0.76,0.90,0.02,-0.08,1.07
921,0.52,0.61,0.63,0.02,-0.08,1.08
922,0.02,0.38,0.93,0.02,-0.08,1.07
923,-0.06,0.47,0.60,0.02,-0.07,1.07
924,0.17,0.34,0.55,0.02,-0.07,1.07
925,0.15,0.41,1.07,0.02,-0.08,1.06
926,-0.09,0.56,0.90,0.03,-0.07,1.06
927,-0.40,0.60,0.27,0.02,-0.07,1.06
928,-0.32,0.82,0.69,0.02,-0.08,1.06
929,-0.15,0.38,1.57,0.02,-0.07,1.07
930,0.73,0.76,1.91,0.02,-0.07,1.07
931,0.75,0.43,1.40,0.02,-0.07,1.07
932,0.15,0.26,1.36,0.02,-0.07,1.06
933,-0.08,0.12,1.18,0.02,-0.07,1.06
934,0.02,0.20,0.46,0.02,-0.07,1.07
935,0.03,-0.03,1.07,0.03,-0.07,1.05
936,-0.37,0.27,1.05,0.02,-0.06,1.05
937,0.03,0.43,0.55,0.02,-0.07,1.07
938,0.08,0.49,1.27,0.02,-0.08,1.07
939,0.06,0.03,1.31,0.01,-0.08,1.08
