,gyro_x,gyro_y,gyro_z,acce_x,acce_y,acce_z
0,-6.17,6.02,3.08,0.15,-0.12,1.09
1,-5.88,5.83,2.99,0.15,-0.12,1.08
2,-5.25,5.11,2.50,0.14,-0.13,1.08
3,-4.02,3.94,2.00,0.15,-0.13,1.06
4,-3.34,3.13,1.39,0.16,-0.14,1.05
5,-2.89,1.10,0.44,0.17,-0.14,1.05
6,-2.82,-0.24,-0.31,0.17,-0.15,1.04
7,-2.90,-2.70,-1.34,0.16,-0.16,1.03
8,-3.10,-4.58,-2.17,0.15,-0.17,1.03
9,-3.10,-5.83,-2.84,0.16,-0.16,1.02
10,-3.42,-8.09,-3.71,0.14,-0.16,1.04
11,-3.98,-9.45,-3.94,0.12,-0.16,1.05
12,-4.03,-10.29,-4.17,0.11,-0.16,1.05
13,-4.21,-9.57,-4.18,0.11,-0.16,1.06
14,-3.80,-8.87,-3.97,0.10,-0.16,1.06
15,-3.95,-8.02,-3.65,0.09,-0.16,1.07
16,-3.91,-6.98,-3.53,0.09,-0.16,1.08
17,-4.12,-6.58,-3.18,0.08,-0.17,1.09
18,-3.88,-4.76,-2.70,0.08,-0.16,1.09
19,-3.79,-3.73,-2.12,0.08,-0.17,1.08
20,-3.98,-2.75,-1.56,0.08,-0.17,1.09
21,-4.23,-2.23,-1.13,0.07,-0.17,1.09
22,-3.97,-2.17,-0.47,0.09,-0.17,1.10
23,-3.50,-1.16,-0.03,0.09,-0.17,1.09
24,-3.21,-1.51,-0.11,0.09,-0.17,1.09
25,-2.87,-1.79,0.26,0.09,-0.17,1.08
26,-2.84,-2.37,0.49,0.09,-0.16,1.06
27,-2.73,-3.04,0.56,0.09,-0.17,1.07
28,-2.46,-3.57,0.98,0.10,-0.16,1.05
29,-2.44,-3.71,1.21,0.09,-0.16,1.06
30,-2.43,-3.34,1.34,0.11,-0.16,1.04
31,-2.72,-2.75,1.44,0.11,-0.16,1.03
32,-3.08,-1.79,1.73,0.11,-0.16,1.02
33,-3.57,-0.75,1.74,0.11,-0.16,1.01
34,-3.80,-0.89,1.65,0.13,-0.16,1.01
35,-3.69,-1.39,1.40,0.13,-0.16,1.02
36,-3.39,-2.21,1.01,0.14,-0.16,1.02
37,-3.18,-3.69,0.29,0.14,-0.16,1.02
38,-2.98,-5.13,-0.23,0.14,-0.17,1.01
39,-2.96,-5.74,-0.49,0.13,-0.17,1.02
40,-2.47,-6.67,-0.44,0.13,-0.18,1.02
41,-2.26,-6.02,-0.58,0.14,-0.19,1.03
42,-2.11,-5.92,-0.93,0.13,-0.18,1.03
43,-2.03,-5.13,-1.21,0.12,-0.19,1.03
44,-1.88,-4.58,-0.79,0.12,-0.19,1.04
45,-2.32,-3.15,-0.67,0.11,-0.19,1.02
46,-2.38,-3.39,-0.50,0.10,-0.19,1.03
47,-2.47,-2.96,-0.05,0.10,-0.20,1.03
48,-2.15,-1.82,0.27,0.11,-0.20,1.03
49,-1.86,-0.89,0.75,0.10,-0.19,1.05
50,-1.54,-0.38,0.96,0.11,-0.19,1.05
51,-1.07,-0.21,1.10,0.11,-0.19,1.06
52,-0.72,-0.38,1.69,0.11,-0.19,1.06
53,-0.60,0.15,1.80,0.11,-0.18,1.06
54,-0.15,-0.60,2.18,0.12,-0.18,1.07
55,0.03,0.05,2.47,0.13,-0.18,1.05
56,0.18,0.23,2.35,0.13,-0.18,1.05
57,0.44,-0.27,2.00,0.13,-0.18,1.04
58,0.63,0.37,2.11,0.14,-0.18,1.04
59,0.24,0.37,1.65,0.14,-0.17,1.02
60,0.14,-0.23,1.36,0.14,-0.18,1.02
61,0.17,-0.89,1.30,0.16,-0.18,1.01
62,0.09,0.49,0.72,0.16,-0.18,1.00
63,0.00,0.90,0.18,0.15,-0.19,1.00
64,-0.49,0.73,-0.03,0.14,-0.18,1.01
65,-0.53,0.35,-0.66,0.13,-0.18,1.00
66,-0.92,0.35,-0.67,0.13,-0.18,1.02
67,-1.08,0.43,-0.67,0.13,-0.18,1.00
68,-1.05,0.29,-0.75,0.13,-0.17,1.01
69,-0.96,0.75,-0.82,0.12,-0.18,1.03
70,-1.05,1.22,-0.73,0.12,-0.18,1.03
71,-1.04,1.39,-0.96,0.12,-0.17,1.03
72,-0.76,1.82,-0.64,0.12,-0.18,1.05
73,-0.67,2.72,-0.49,0.12,-0.18,1.03
74,-0.58,3.08,-0.52,0.12,-0.18,1.03
75,-0.34,2.96,-0.53,0.12,-0.18,1.03
76,-0.34,2.18,-0.73,0.12,-0.18,1.03
77,0.17,2.70,-0.64,0.13,-0.17,1.03
78,0.52,2.73,-0.93,0.13,-0.18,1.03
79,0.66,2.56,-0.99,0.13,-0.17,1.04
80,0.81,2.85,-1.02,0.12,-0.18,1.03
81,1.11,3.10,-0.92,0.12,-0.17,1.03
82,1.13,3.18,-0.72,0.11,-0.18,1.03
83,1.16,3.73,-0.73,0.11,-0.17,1.02
84,0.66,3.85,-0.46,0.10,-0.17,1.02
85,0.40,3.22,-0.24,0.10,-0.18,1.01
86,0.29,3.63,-0.15,0.10,-0.17,1.00
87,0.11,3.65,-0.24,0.12,-0.17,1.01
88,-0.12,3.27,-0.18,0.12,-0.17,1.01
89,-0.20,2.46,-0.52,0.12,-0.18,1.01
90,-0.12,1.01,-0.79,0.12,-0.17,1.01
91,-0.31,0.79,-0.93,0.13,-0.17,1.02
92,-0.31,0.67,-1.30,0.13,-0.17,1.02
93,0.24,1.34,-0.85,0.13,-0.18,1.05
94,0.63,0.61,-1.18,0.12,-0.17,1.06
95,1.11,0.46,-1.25,0.10,-0.17,1.06
96,1.63,2.02,-0.82,0.11,-0.17,1.07
97,1.82,2.67,-1.02,0.11,-0.17,1.07
98,1.74,2.60,-0.82,0.10,-0.16,1.06
99,1.76,4.84,-0.41,0.12,-0.17,1.05
100,1.37,5.18,-0.49,0.11,-0.17,1.05
101,0.93,4.85,-0.93,0.11,-0.17,1.05
102,1.37,3.63,-0.78,0.10,-0.17,1.07
103,2.15,2.34,-0.69,0.10,-0.17,1.07
104,2.89,1.83,-0.49,0.10,-0.17,1.06
105,3.10,0.09,-0.56,0.10,-0.17,1.05
106,2.32,-0.82,-0.55,0.11,-0.17,1.07
107,2.64,-0.72,-0.46,0.12,-0.17,1.06
108,2.56,-1.37,-0.85,0.11,-0.17,1.06
109,1.97,-1.53,-0.64,0.11,-0.17,1.06
110,1.91,-1.19,-0.72,0.11,-0.17,1.06
111,1.97,-0.29,-0.98,0.12,-0.16,1.05
112,1.54,0.85,-0.66,0.11,-0.16,1.07
113,1.25,1.77,-0.53,0.11,-0.16,1.06
114,1.15,2.52,-0.26,0.11,-0.16,1.06
115,1.25,2.23,-0.31,0.12,-0.17,1.06
116,0.84,1.86,-0.55,0.11,-0.16,1.05
117,0.63,1.04,-0.67,0.11,-0.17,1.05
118,0.00,0.38,-0.60,0.11,-0.16,1.04
119,-0.18,0.23,-0.96,0.10,-0.17,1.04
120,-0.50,-0.43,-1.04,0.10,-0.17,1.05
121,-0.37,-0.89,-0.81,0.09,-0.16,1.05
122,-0.31,-1.27,-0.44,0.10,-0.16,1.06
123,-0.31,-0.90,-0.66,0.10,-0.16,1.06
124,-0.38,-0.76,-0.70,0.11,-0.17,1.04
125,0.00,-0.73,-0.82,0.11,-0.16,1.07
126,-0.27,-0.52,-0.87,0.12,-0.16,1.06
127,-0.50,-0.78,-0.99,0.10,-0.16,1.05
128,-0.53,-0.99,-1.27,0.11,-0.16,1.05
129,-0.26,-1.79,-1.15,0.10,-0.16,1.05
130,-0.05,-2.03,-0.87,0.10,-0.16,1.05
131,0.31,-1.11,-0.55,0.11,-0.16,1.04
132,0.87,-0.92,-0.34,0.10,-0.16,1.05
133,1.27,-1.10,-0.47,0.10,-0.16,1.05
134,1.27,-0.99,-0.34,0.10,-0.16,1.04
135,1.10,-0.70,-0.67,0.10,-0.16,1.05
136,1.13,-0.72,-0.35,0.10,-0.16,1.05
137,1.07,-0.66,-0.38,0.10,-0.17,1.05
138,1.36,-0.60,-0.17,0.09,-0.17,1.05
139,1.68,-0.44,-0.14,0.10,-0.17,1.05
140,1.94,-0.61,0.08,0.10,-0.17,1.06
141,1.68,-0.78,0.09,0.09,-0.17,1.06
142,1.77,-0.56,0.27,0.09,-0.17,1.05
143,1.45,-0.27,0.49,0.09,-0.17,1.05
144,1.51,-0.46,0.82,0.08,-0.17,1.04
145,1.59,-0.82,0.75,0.10,-0.17,1.03
146,1.04,-0.64,0.79,0.09,-0.17,1.03
147,0.93,-0.46,1.19,0.09,-0.16,1.02
148,0.70,-0.50,1.16,0.09,-0.17,1.02
149,0.55,-0.69,1.39,0.09,-0.17,1.03
150,0.46,-1.31,1.37,0.10,-0.17,1.03
151,0.47,-2.03,1.54,0.09,-0.17,1.04
152,0.27,-2.24,1.73,0.09,-0.16,1.04
153,0.31,-2.55,1.69,0.10,-0.17,1.04
154,0.23,-2.73,1.80,0.10,-0.17,1.04
155,0.32,-2.56,1.80,0.10,-0.17,1.03
156,0.06,-2.29,1.80,0.10,-0.17,1.03
157,-0.03,-1.91,2.23,0.10,-0.18,1.04
158,0.06,-1.22,2.31,0.10,-0.17,1.04
159,-0.50,-1.59,2.15,0.09,-0.17,1.04
160,-0.84,-1.54,2.63,0.10,-0.17,1.03
161,-1.02,-1.07,2.66,0.10,-0.17,1.04
162,-0.72,-1.10,2.60,0.11,-0.16,1.05
163,-0.31,-1.13,2.49,0.12,-0.17,1.04
164,-0.03,-0.70,2.87,0.13,-0.17,1.03
165,0.41,-1.68,2.21,0.12,-0.16,1.04
166,0.53,-1.48,2.26,0.13,-0.16,1.04
167,0.29,-1.50,2.23,0.13,-0.16,1.04
168,-0.11,-1.59,2.23,0.13,-0.16,1.04
169,-0.02,-1.95,2.09,0.12,-0.17,1.04
170,-0.03,-1.47,2.32,0.13,-0.16,1.04
171,-0.41,-0.64,1.91,0.13,-0.17,1.04
172,-0.55,-0.96,1.25,0.14,-0.17,1.04
173,-0.18,-0.50,1.44,0.15,-0.17,1.04
174,0.05,-0.43,1.28,0.14,-0.17,1.05
175,-0.20,-0.34,1.21,0.13,-0.17,1.04
176,0.08,-0.67,1.19,0.12,-0.17,1.04
177,-0.06,-0.60,1.33,0.13,-0.17,1.03
178,-0.02,-0.99,1.05,0.13,-0.17,1.04
179,-0.26,-0.96,1.10,0.13,-0.17,1.05
180,-0.35,-0.81,1.24,0.13,-0.17,1.05
181,-0.50,-0.75,0.98,0.13,-0.18,1.05
182,-0.55,-0.03,0.81,0.12,-0.18,1.05
183,-0.50,-0.29,1.10,0.12,-0.17,1.05
184,-0.49,-0.56,1.10,0.11,-0.17,1.05
185,-0.38,-0.06,0.96,0.11,-0.18,1.05
186,-0.43,-0.20,1.10,0.12,-0.18,1.05
187,-0.26,-0.29,1.34,0.12,-0.18,1.05
188,-0.29,0.31,1.15,0.12,-0.18,1.05
189,-0.24,0.20,0.98,0.13,-0.18,1.06
190,-0.09,-0.05,0.98,0.12,-0.18,1.05
191,0.18,0.24,1.02,0.12,-0.17,1.05
192,0.37,-0.11,1.05,0.12,-0.17,1.06
193,0.75,0.60,0.99,0.12,-0.18,1.05
194,0.96,1.16,1.01,0.12,-0.17,1.05
195,0.90,0.78,0.95,0.12,-0.17,1.05
196,0.87,0.99,1.08,0.11,-0.17,1.04
197,1.01,1.27,1.34,0.12,-0.17,1.04
198,0.90,1.48,1.24,0.11,-0.18,1.03
199,0.76,1.79,1.28,0.12,-0.18,1.04
200,0.93,1.53,1.37,0.11,-0.17,1.04
201,0.64,1.65,1.19,0.11,-0.17,1.03
202,0.56,1.59,1.47,0.12,-0.17,1.02
203,0.40,1.74,1.42,0.12,-0.17,1.03
204,0.20,1.37,1.13,0.12,-0.17,1.02
205,0.08,0.63,1.16,0.13,-0.17,1.03
206,0.08,0.14,0.69,0.13,-0.17,1.02
207,0.15,-0.23,0.70,0.13,-0.17,1.03
208,-0.05,-0.35,0.38,0.13,-0.17,1.03
209,0.09,-1.71,0.12,0.13,-0.17,1.04
210,-0.14,-1.76,-0.15,0.13,-0.17,1.03
211,-0.26,-1.53,-0.31,0.12,-0.17,1.03
212,-0.23,-1.59,-0.14,0.13,-0.17,1.03
213,-0.44,-1.85,-0.21,0.12,-0.17,1.04
214,-0.18,-1.86,-0.27,0.11,-0.17,1.05
215,0.12,-0.93,-0.08,0.11,-0.17,1.05
216,0.24,-0.63,-0.14,0.12,-0.18,1.05
217,0.35,-0.52,-0.23,0.11,-0.18,1.05
218,0.46,-0.34,0.00,0.12,-0.18,1.06
219,0.78,0.05,0.20,0.11,-0.17,1.06
220,0.70,0.64,0.47,0.11,-0.18,1.05
221,0.63,0.99,0.72,0.11,-0.17,1.06
222,1.05,1.24,0.63,0.12,-0.18,1.05
223,1.02,0.95,0.93,0.11,-0.17,1.05
224,1.04,0.98,0.90,0.12,-0.17,1.05
225,0.85,1.33,0.87,0.12,-0.17,1.04
226,0.67,0.87,1.02,0.12,-0.17,1.04
227,0.50,1.05,0.85,0.12,-0.17,1.03
228,0.46,0.66,0.96,0.11,-0.17,1.04
229,0.31,0.12,0.79,0.12,-0.17,1.03
230,0.26,-0.17,0.55,0.12,-0.17,1.02
231,0.03,-0.47,0.40,0.12,-0.17,1.03
232,0.02,-0.21,0.43,0.13,-0.17,1.03
233,-0.15,-0.32,0.35,0.13,-0.17,1.03
234,-0.20,-0.29,0.26,0.13,-0.17,1.04
235,0.18,-0.35,0.02,0.12,-0.17,1.05
236,0.09,0.02,0.02,0.13,-0.17,1.04
237,0.11,0.06,0.02,0.12,-0.17,1.04
238,0.02,-0.03,0.17,0.12,-0.17,1.04
239,0.17,0.23,0.26,0.12,-0.17,1.04
240,0.40,0.44,0.58,0.12,-0.17,1.04
241,0.50,0.31,0.46,0.11,-0.17,1.04
242,0.52,0.89,0.60,0.11,-0.17,1.05
243,0.50,1.02,0.66,0.10,-0.17,1.04
244,0.79,0.93,1.13,0.11,-0.17,1.03
245,0.73,1.31,1.15,0.12,-0.17,1.04
246,0.72,1.62,1.08,0.12,-0.16,1.06
247,0.64,1.51,0.85,0.12,-0.17,1.04
248,0.69,1.56,1.04,0.12,-0.16,1.04
249,0.72,1.44,0.70,0.13,-0.17,1.05
250,0.90,1.47,0.55,0.13,-0.17,1.05
251,1.01,0.79,0.43,0.13,-0.17,1.05
252,0.99,1.02,0.53,0.13,-0.17,1.05
253,1.10,0.92,0.50,0.11,-0.17,1.05
254,0.99,0.93,0.47,0.11,-0.17,1.04
255,1.04,0.98,0.66,0.12,-0.17,1.04
256,0.79,1.47,0.49,0.12,-0.17,1.03
257,0.69,1.79,0.64,0.11,-0.17,1.03
258,0.47,1.47,0.35,0.11,-0.17,1.03
259,0.29,1.63,0.66,0.10,-0.17,1.03
260,0.05,1.51,0.81,0.11,-0.17,1.03
261,0.02,1.54,0.70,0.11,-0.17,1.04
262,-0.06,1.44,0.87,0.11,-0.17,1.03
263,0.11,1.24,1.19,0.11,-0.17,1.04
264,0.02,1.11,0.78,0.12,-0.16,1.03
265,-0.20,0.32,0.84,0.12,-0.16,1.03
266,0.08,0.21,0.60,0.12,-0.16,1.04
267,-0.08,0.11,0.60,0.12,-0.16,1.03
268,0.06,-0.11,0.31,0.12,-0.16,1.04
269,0.12,-0.21,0.35,0.12,-0.17,1.04
270,0.00,-0.53,0.38,0.11,-0.17,1.06
271,-0.03,-0.52,0.60,0.11,-0.16,1.05
272,0.37,-0.43,0.60,0.11,-0.16,1.04
273,0.29,-0.52,0.52,0.12,-0.17,1.05
274,0.52,-0.34,0.84,0.12,-0.17,1.05
275,0.49,-0.08,0.46,0.12,-0.17,1.04
276,0.29,-0.14,0.55,0.11,-0.17,1.04
277,0.23,0.05,0.69,0.11,-0.17,1.06
278,0.12,0.66,0.69,0.12,-0.17,1.06
279,0.09,0.49,0.41,0.11,-0.16,1.06
280,0.32,0.37,0.78,0.10,-0.17,1.05
281,0.34,0.11,0.84,0.11,-0.17,1.05
282,0.53,0.06,1.07,0.12,-0.17,1.06
283,0.70,0.31,0.96,0.12,-0.17,1.05
284,0.75,0.75,0.82,0.12,-0.17,1.06
285,0.89,0.56,0.67,0.11,-0.17,1.05
286,0.98,0.49,0.81,0.12,-0.17,1.04
287,0.99,0.84,0.81,0.11,-0.17,1.05
288,0.92,0.85,0.75,0.11,-0.17,1.05
289,0.82,0.87,0.92,0.11,-0.17,1.04
290,0.52,1.31,0.55,0.11,-0.16,1.04
291,0.40,1.28,0.67,0.11,-0.17,1.03
292,0.08,0.89,0.79,0.11,-0.16,1.03
293,-0.17,0.18,0.58,0.12,-0.16,1.03
294,-0.46,-0.08,0.44,0.12,-0.17,1.02
295,0.02,-0.99,0.18,0.11,-0.16,1.03
296,0.20,-0.53,0.24,0.12,-0.17,1.04
297,0.43,-0.27,0.17,0.12,-0.17,1.04
298,0.46,-1.13,0.44,0.11,-0.17,1.04
299,0.73,-0.79,0.35,0.11,-0.16,1.04
300,0.72,-0.43,0.44,0.10,-0.16,1.05
301,0.32,-0.61,0.70,0.11,-0.16,1.05
302,0.31,-0.63,0.78,0.11,-0.18,1.04
303,0.55,-0.08,0.87,0.11,-0.17,1.05
304,0.63,0.41,0.90,0.11,-0.17,1.05
305,0.52,0.69,0.82,0.12,-0.17,1.05
306,0.63,0.63,1.13,0.10,-0.16,1.05
307,0.34,0.70,1.22,0.11,-0.16,1.04
308,0.35,1.08,1.44,0.10,-0.17,1.03
309,0.47,1.36,1.44,0.12,-0.17,1.04
310,0.53,0.72,1.34,0.11,-0.17,1.04
311,0.67,0.47,1.27,0.13,-0.16,1.04
312,0.55,0.67,1.18,0.13,-0.16,1.02
313,0.55,0.92,0.95,0.13,-0.17,1.04
314,0.50,0.52,0.95,0.14,-0.17,1.03
315,0.24,0.75,0.70,0.14,-0.17,1.03
316,0.11,0.35,0.21,0.14,-0.16,1.03
317,0.15,0.21,-0.17,0.14,-0.17,1.02
318,-0.29,0.09,-0.26,0.13,-0.17,1.02
319,-0.24,-0.82,-0.50,0.13,-0.17,1.02
320,-0.53,-0.87,-0.85,0.12,-0.17,1.03
321,-0.52,-1.37,-0.93,0.12,-0.17,1.04
322,-0.23,-0.95,-0.87,0.12,-0.17,1.05
323,0.00,-0.44,-0.53,0.11,-0.17,1.04
324,0.17,0.26,-0.32,0.11,-0.17,1.05
325,0.63,1.71,-0.14,0.11,-0.17,1.06
326,0.72,2.00,-0.05,0.11,-0.17,1.06
327,0.58,2.18,0.11,0.11,-0.17,1.06
328,0.53,1.74,0.14,0.11,-0.17,1.05
329,0.66,1.37,0.37,0.11,-0.16,1.06
330,0.93,1.34,0.24,0.11,-0.17,1.06
331,0.78,0.99,0.41,0.11,-0.17,1.06
332,0.96,0.87,0.44,0.11,-0.17,1.06
333,1.10,0.55,0.37,0.12,-0.16,1.05
334,1.24,0.82,0.14,0.12,-0.17,1.05
335,1.25,1.19,0.27,0.11,-0.17,1.05
336,1.02,1.45,0.32,0.11,-0.16,1.05
337,1.28,1.62,0.37,0.12,-0.16,1.05
338,0.89,1.62,0.21,0.11,-0.16,1.04
339,0.67,1.31,0.37,0.11,-0.17,1.03
340,0.40,1.45,0.49,0.11,-0.16,1.02
341,0.17,1.04,0.58,0.11,-0.16,1.03
342,-0.18,0.64,0.56,0.11,-0.17,1.03
343,-0.18,0.24,0.41,0.11,-0.16,1.03
344,0.02,-0.34,0.14,0.12,-0.16,1.04
345,-0.06,-1.01,0.14,0.12,-0.16,1.03
346,0.09,-1.11,0.14,0.12,-0.16,1.03
347,-0.05,-1.37,-0.03,0.12,-0.16,1.03
348,0.18,-0.76,0.06,0.11,-0.17,1.05
349,0.11,-0.34,0.24,0.11,-0.15,1.05
350,-0.02,-0.46,0.20,0.11,-0.16,1.04
351,-0.14,-0.06,0.44,0.11,-0.16,1.03
352,-0.32,0.40,0.12,0.11,-0.16,1.05
353,-0.32,0.11,0.43,0.11,-0.17,1.04
354,-0.18,-0.14,0.03,0.11,-0.17,1.05
355,-0.02,-0.69,-0.05,0.11,-0.16,1.05
356,0.31,-1.36,0.06,0.10,-0.17,1.05
357,0.76,-1.77,0.15,0.10,-0.17,1.06
358,0.76,-2.21,0.37,0.10,-0.17,1.06
359,0.85,-2.34,0.55,0.11,-0.17,1.06
360,1.05,-2.00,0.63,0.10,-0.17,1.06
361,1.39,-1.40,0.87,0.10,-0.17,1.05
362,1.36,-0.66,0.73,0.11,-0.17,1.05
363,1.07,-0.03,0.89,0.12,-0.17,1.05
364,0.92,0.67,0.99,0.11,-0.16,1.05
365,0.90,0.60,0.79,0.11,-0.16,1.05
366,0.73,0.84,0.73,0.11,-0.16,1.05
367,0.55,0.85,0.63,0.12,-0.16,1.05
368,0.81,0.52,0.47,0.11,-0.16,1.05
369,0.82,0.32,0.92,0.11,-0.16,1.04
370,0.60,-0.20,0.85,0.10,-0.17,1.04
371,0.43,-0.64,0.76,0.11,-0.17,1.04
372,0.23,-1.08,0.87,0.11,-0.16,1.03
373,0.20,-0.85,0.60,0.11,-0.16,1.03
374,0.34,-0.93,0.75,0.12,-0.16,1.03
375,0.34,-0.44,0.63,0.12,-0.16,1.04
376,0.31,0.17,0.63,0.12,-0.16,1.04
377,0.17,-0.03,0.84,0.12,-0.16,1.03
378,0.02,-0.23,0.73,0.11,-0.17,1.03
379,-0.23,-0.31,0.75,0.11,-0.16,1.03
380,-0.61,-0.32,0.34,0.12,-0.17,1.03
381,-0.38,-0.67,0.60,0.12,-0.17,1.04
382,-0.38,-0.67,0.55,0.13,-0.17,1.04
383,-0.26,-1.76,0.20,0.12,-0.17,1.05
384,-0.12,-2.43,0.23,0.12,-0.17,1.05
385,0.44,-2.31,0.37,0.11,-0.16,1.07
386,0.66,-1.92,0.44,0.12,-0.16,1.06
387,0.85,-1.50,0.41,0.12,-0.16,1.06
388,0.87,-1.10,0.49,0.12,-0.17,1.06
389,0.87,-0.46,0.55,0.12,-0.17,1.06
390,0.64,-0.12,0.46,0.12,-0.17,1.06
391,0.40,-0.21,0.67,0.12,-0.16,1.05
392,0.06,0.12,0.72,0.12,-0.16,1.05
393,0.03,-0.05,0.70,0.12,-0.17,1.05
394,0.03,-0.14,0.61,0.12,-0.16,1.05
395,0.21,-0.90,0.34,0.12,-0.16,1.05
396,0.47,-1.24,0.20,0.12,-0.16,1.06
397,0.56,-0.82,0.29,0.13,-0.16,1.06
398,0.79,-1.02,0.08,0.12,-0.17,1.05
399,0.64,-1.30,0.09,0.12,-0.16,1.05
400,0.75,-1.27,-0.18,0.13,-0.16,1.06
401,0.40,-1.10,-0.56,0.11,-0.16,1.05
402,0.43,-0.96,-0.55,0.12,-0.16,1.04
403,0.23,-0.87,-0.52,0.13,-0.16,1.05
404,0.31,-0.53,-0.79,0.12,-0.16,1.05
405,0.34,-0.98,-0.85,0.12,-0.17,1.04
406,0.49,-1.16,-0.66,0.12,-0.17,1.04
407,0.50,-1.44,-0.93,0.11,-0.17,1.04
408,0.32,-1.68,-0.66,0.12,-0.16,1.04
409,0.49,-1.92,-1.01,0.12,-0.16,1.04
410,0.73,-1.56,-0.79,0.12,-0.17,1.05
411,0.81,-1.51,-1.15,0.11,-0.17,1.04
412,0.84,-0.87,-0.87,0.12,-0.17,1.04
413,1.11,-0.73,-0.96,0.12,-0.17,1.04
414,0.90,-1.24,-0.92,0.12,-0.17,1.05
415,0.82,-1.36,-0.87,0.12,-0.16,1.05
416,0.70,-1.34,-0.64,0.11,-0.17,1.05
417,0.53,-0.95,-0.85,0.12,-0.17,1.05
418,0.96,-0.46,-0.66,0.12,-0.17,1.05
419,1.13,-1.04,-0.76,0.12,-0.16,1.05
420,0.87,-1.50,-1.27,0.12,-0.16,1.05
421,-1.97,-6.96,-5.19,0.12,-0.14,1.04
422,0.85,-1.16,-2.21,0.12,-0.17,1.07
423,1.74,-3.42,-0.61,0.10,-0.17,1.06
424,1.33,-3.73,-2.06,0.13,-0.17,1.02
425,0.67,-2.08,-1.02,0.13,-0.16,1.05
426,0.85,-3.51,-1.27,0.13,-0.16,1.05
427,1.34,-1.83,-1.36,0.15,-0.16,1.04
428,1.71,-0.96,-1.31,0.14,-0.15,1.05
429,1.94,-1.59,-1.53,0.15,-0.16,1.06
430,2.18,-0.34,-1.68,0.15,-0.16,1.05
431,1.74,1.10,-1.40,0.16,-0.15,1.04
432,1.42,2.08,-1.63,0.15,-0.15,1.04
433,0.90,1.91,-1.94,0.16,-0.15,1.03
434,1.22,2.47,-2.20,0.18,-0.14,1.03
435,1.22,3.42,-2.73,0.19,-0.14,1.04
436,1.51,4.38,-3.15,0.20,-0.14,1.03
437,1.22,4.89,-3.54,0.21,-0.14,1.03
438,0.75,5.59,-4.21,0.23,-0.13,1.03
439,0.12,6.11,-5.02,0.25,-0.13,1.03
440,-0.27,6.35,-6.58,0.26,-0.11,1.05
441,0.41,7.01,-7.45,0.29,-0.11,1.07
442,0.09,10.14,-8.79,0.32,-0.10,1.05
443,-1.25,12.12,-10.96,0.34,-0.09,1.05
444,-2.49,14.56,-13.22,0.41,-0.08,1.09
445,-2.03,19.36,-16.79,0.49,-0.07,1.11
446,-2.32,21.47,-19.83,0.51,-0.08,1.13
447,-10.73,40.12,-16.90,0.69,-0.02,1.01
448,-5.88,12.95,-30.95,0.67,-0.13,1.16
449,-8.26,18.26,-40.00,0.88,-0.12,1.09
450,-0.95,19.34,-48.27,0.85,-0.16,1.21
451,3.51,10.21,-56.64,0.85,-0.15,1.24
452,10.60,11.80,-64.75,0.85,-0.17,1.19
453,13.92,10.18,-71.45,0.82,-0.19,1.19
454,16.58,6.02,-76.78,0.73,-0.22,1.20
455,17.66,2.66,-82.06,0.69,-0.23,1.21
456,18.79,-0.61,-85.05,0.67,-0.25,1.14
457,18.17,2.81,-88.18,0.63,-0.27,1.13
458,18.23,8.50,-90.31,0.56,-0.27,1.08
459,15.42,13.16,-91.92,0.50,-0.29,1.06
460,11.94,21.51,-92.24,0.46,-0.28,1.04
461,9.83,26.76,-93.30,0.40,-0.30,1.02
462,8.89,32.96,-92.37,0.38,-0.30,1.01
463,6.11,40.52,-92.32,0.38,-0.31,1.01
464,4.24,55.31,-92.84,0.38,-0.31,1.01
465,-2.75,83.39,-89.57,0.39,-0.31,1.01
466,-7.01,103.65,-77.80,0.41,-0.27,1.01
467,-10.00,96.06,-67.47,0.32,-0.31,1.02
468,-7.88,76.95,-92.02,0.31,-0.34,1.05
469,-8.44,76.69,-95.10,0.36,-0.34,1.05
470,-7.13,78.72,-97.25,0.39,-0.33,1.05
471,-7.83,76.23,-102.84,0.37,-0.36,1.06
472,-3.73,64.87,-110.24,0.36,-0.37,1.06
473,-4.00,56.38,-119.28,0.31,-0.37,1.07
474,-6.02,53.63,-118.18,0.33,-0.32,1.03
475,-2.95,51.42,-122.66,0.28,-0.37,1.04
476,-1.62,44.67,-129.80,0.25,-0.37,1.06
477,0.37,37.47,-134.46,0.21,-0.36,1.05
478,2.98,33.24,-135.92,0.17,-0.35,1.04
479,6.15,30.21,-137.56,0.16,-0.36,1.02
480,7.94,28.87,-138.44,0.18,-0.36,0.99
481,8.56,27.54,-139.48,0.16,-0.35,0.96
482,7.50,25.04,-140.12,0.14,-0.35,0.93
483,6.96,24.09,-141.07,0.13,-0.34,0.91
484,5.74,24.73,-143.21,0.13,-0.33,0.91
485,5.65,30.31,-139.62,0.17,-0.31,0.90
486,5.05,31.02,-143.33,0.11,-0.33,0.89
487,3.36,31.08,-144.64,0.08,-0.32,0.88
488,1.76,31.88,-145.60,0.12,-0.32,0.87
489,0.67,36.79,-146.84,0.17,-0.33,0.87
490,0.08,39.60,-148.56,0.17,-0.35,0.88
491,-0.69,40.58,-150.75,0.17,-0.35,0.88
492,-1.45,43.80,-152.50,0.19,-0.36,0.89
493,-2.38,46.67,-155.21,0.17,-0.36,0.90
494,-3.71,48.95,-156.32,0.15,-0.36,0.93
495,-5.18,50.52,-157.47,0.10,-0.35,0.92
496,-5.80,52.98,-158.99,0.08,-0.35,0.95
497,-4.50,55.27,-159.51,0.07,-0.36,1.02
498,-2.20,56.46,-158.78,0.02,-0.36,1.09
499,-0.11,57.45,-158.09,-0.01,-0.38,1.09
500,4.46,61.22,-156.50,-0.01,-0.39,1.13
501,8.40,63.89,-154.34,-0.04,-0.40,1.14
502,11.71,64.34,-151.57,-0.09,-0.40,1.14
503,14.61,63.47,-150.92,-0.11,-0.39,1.11
504,18.37,67.40,-148.96,-0.10,-0.38,1.10
505,20.03,65.56,-145.53,-0.10,-0.38,1.10
506,20.76,63.01,-146.60,-0.08,-0.39,1.08
507,20.92,62.73,-144.03,-0.08,-0.37,1.05
508,22.43,61.44,-144.18,-0.05,-0.38,0.98
509,28.11,62.43,-147.76,-0.00,-0.42,0.95
510,30.32,66.53,-143.60,-0.02,-0.38,0.87
511,25.89,66.11,-145.54,-0.02,-0.36,0.85
512,19.16,68.76,-146.41,0.00,-0.34,0.84
513,21.30,60.08,-147.98,0.01,-0.36,0.83
514,23.86,55.60,-148.98,0.05,-0.37,0.82
515,24.76,53.05,-150.46,0.08,-0.40,0.81
516,24.53,45.10,-153.11,0.06,-0.42,0.81
517,23.59,31.92,-155.24,0.03,-0.43,0.81
518,22.67,18.41,-155.53,0.03,-0.43,0.85
519,26.76,4.85,-158.35,0.01,-0.46,0.86
520,29.77,-14.84,-160.29,-0.06,-0.47,0.91
521,31.34,-29.30,-161.21,-0.10,-0.47,0.89
522,37.68,-43.40,-163.31,-0.11,-0.48,0.90
523,21.25,-35.22,-160.56,-0.09,-0.53,1.08
524,57.54,-69.65,-162.58,-0.34,-0.48,0.58
525,22.18,-69.63,-159.63,-0.21,-0.61,1.27
526,26.52,-47.74,-149.95,-0.46,-0.44,1.02
527,35.25,-89.92,-149.94,-0.66,-0.47,0.96
528,42.69,-129.30,-143.86,-0.74,-0.50,0.85
529,43.66,-117.11,-135.80,-0.67,-0.44,0.81
530,14.46,-100.84,-125.97,-0.64,-0.39,0.90
531,-5.44,-73.21,-112.18,-0.57,-0.34,0.99
532,-10.32,-51.97,-101.07,-0.58,-0.35,1.03
533,-11.97,-62.26,-92.89,-0.61,-0.32,1.02
534,-13.10,-65.25,-85.91,-0.50,-0.31,1.01
535,-16.85,-48.96,-79.80,-0.40,-0.30,0.98
536,-20.23,-41.94,-76.34,-0.39,-0.29,0.97
537,-22.93,-49.86,-76.02,-0.36,-0.27,1.00
538,-26.40,-58.20,-75.04,-0.25,-0.27,0.99
539,-31.62,-45.13,-72.23,-0.11,-0.27,0.95
540,-40.69,-27.21,-69.68,-0.03,-0.27,1.00
541,-36.24,-21.34,-69.08,-0.01,-0.27,0.96
542,-44.67,-34.40,-73.24,-0.01,-0.24,0.98
543,-46.11,-40.02,-73.24,0.05,-0.27,1.00
544,-52.09,-23.24,-74.64,0.11,-0.25,0.97
545,-61.71,-30.38,-80.44,0.08,-0.26,1.07
546,-66.58,-32.03,-85.63,0.09,-0.26,1.08
547,-74.47,-42.63,-93.62,0.08,-0.27,1.09
548,-76.90,-46.17,-93.45,0.09,-0.28,1.06
549,-77.08,-35.04,-84.18,0.02,-0.27,1.07
550,-66.02,-18.29,-75.48,-0.04,-0.28,1.02
551,-53.77,-2.82,-62.14,-0.11,-0.29,0.98
552,-55.42,6.37,-57.16,-0.13,-0.28,0.98
553,-62.18,4.52,-56.11,-0.13,-0.29,0.97
554,-64.37,-4.17,-55.22,-0.13,-0.30,0.92
555,-78.18,-10.24,-55.97,-0.11,-0.32,0.96
556,-83.77,-13.45,-55.95,-0.05,-0.31,0.97
557,-105.05,-12.17,-59.30,-0.08,-0.32,1.00
558,-146.93,-24.09,-59.36,-0.04,-0.23,1.15
559,-92.35,3.76,-45.21,0.03,-0.40,0.95
560,-80.78,3.74,-42.53,0.01,-0.40,0.99
561,-64.92,-1.34,-40.38,0.01,-0.40,1.05
562,-81.44,-7.11,-46.21,0.01,-0.40,1.03
563,-90.08,-22.95,-49.08,-0.02,-0.37,1.13
564,-91.34,-28.72,-47.77,-0.00,-0.40,1.05
565,-78.40,-36.99,-48.00,0.01,-0.41,0.99
566,-78.60,-46.56,-46.03,0.01,-0.41,1.04
567,-69.65,-39.28,-43.42,0.07,-0.41,0.99
568,-58.56,-33.57,-40.06,0.07,-0.41,1.02
569,-51.10,-31.04,-33.95,0.07,-0.41,0.98
570,-47.88,-27.01,-32.08,0.07,-0.41,0.99
571,-39.51,-16.79,-27.53,0.11,-0.45,0.96
572,-31.71,-9.19,-21.71,0.11,-0.43,0.98
573,-23.85,-4.26,-17.45,0.10,-0.44,1.00
574,-20.02,1.92,-13.28,0.10,-0.44,0.99
575,-17.73,3.10,-11.50,0.08,-0.43,0.99
576,-15.53,7.82,-7.48,0.10,-0.43,1.01
577,-11.40,8.87,-5.30,0.09,-0.45,1.03
578,-10.43,15.18,-1.65,0.09,-0.44,1.05
579,-9.30,17.89,0.58,0.10,-0.45,1.04
580,-7.91,22.95,3.28,0.10,-0.45,1.04
581,-7.50,26.11,5.25,0.09,-0.45,1.05
582,-7.13,31.04,7.88,0.10,-0.44,1.03
583,-4.50,34.85,9.76,0.11,-0.46,1.04
584,-2.31,36.00,10.49,0.11,-0.45,1.04
585,-4.84,32.12,9.39,0.10,-0.44,1.00
586,-1.39,28.58,8.21,0.10,-0.46,1.01
587,1.36,41.13,14.72,0.13,-0.44,1.00
588,2.81,44.58,16.78,0.09,-0.43,1.01
589,3.74,39.56,15.97,0.07,-0.44,1.01
590,3.92,37.30,15.44,0.07,-0.43,1.00
591,6.27,35.74,15.98,0.08,-0.43,0.99
592,9.57,38.20,17.91,0.10,-0.43,0.99
593,11.92,38.58,16.56,0.11,-0.42,0.97
594,15.94,42.21,17.25,0.11,-0.43,0.99
595,18.99,44.78,19.51,0.11,-0.42,0.98
596,24.44,46.70,19.56,0.11,-0.42,0.97
597,25.48,42.90,19.10,0.11,-0.41,0.96
598,25.37,40.53,19.16,0.09,-0.40,0.91
599,31.36,34.58,18.89,0.07,-0.42,0.94
600,36.75,34.99,22.46,0.09,-0.41,0.98
601,44.12,36.41,25.02,0.08,-0.39,1.01
602,49.79,32.73,24.99,0.05,-0.41,0.97
603,63.71,43.71,30.58,0.06,-0.40,0.94
604,68.99,54.09,34.38,0.05,-0.38,1.00
605,62.72,46.34,31.25,0.02,-0.35,1.09
606,62.70,42.41,29.71,0.04,-0.34,1.08
607,67.91,41.33,25.89,0.05,-0.35,1.02
608,58.31,41.66,23.73,0.05,-0.33,1.03
609,66.69,41.34,25.53,0.04,-0.33,1.04
610,75.85,50.90,27.94,0.06,-0.34,1.00
611,65.65,50.40,25.19,0.05,-0.31,1.04
612,52.60,40.08,19.22,0.02,-0.30,1.05
613,42.61,27.50,14.32,0.02,-0.29,1.05
614,35.66,21.39,11.33,0.03,-0.29,1.03
615,29.30,15.05,8.61,0.01,-0.29,1.03
616,26.23,10.46,8.60,0.01,-0.28,1.04
617,19.37,7.53,7.34,0.00,-0.27,1.04
618,16.93,5.94,7.10,-0.00,-0.27,1.04
619,15.76,6.76,8.03,0.01,-0.28,1.03
620,15.85,9.08,7.59,0.03,-0.27,1.00
621,12.93,5.98,7.94,0.02,-0.29,1.04
622,10.92,11.42,7.69,0.03,-0.27,0.97
623,5.22,10.20,7.04,0.01,-0.29,0.97
624,3.24,9.18,8.17,0.03,-0.28,1.01
625,1.53,16.46,8.18,0.04,-0.27,0.98
626,0.15,10.29,7.01,0.02,-0.29,1.01
627,-0.55,9.34,6.78,0.03,-0.28,0.99
628,-1.76,7.69,6.18,0.02,-0.28,0.99
629,-4.44,3.71,5.02,0.01,-0.29,0.98
630,-6.78,-2.31,4.47,0.01,-0.30,1.01
631,-7.77,-1.44,4.56,0.03,-0.29,1.02
632,-8.27,-2.66,4.00,0.02,-0.29,1.04
633,-8.49,-5.19,3.56,0.01,-0.27,1.04
634,-9.24,-7.34,2.49,0.00,-0.27,1.06
635,-7.86,-8.05,3.22,0.00,-0.28,1.04
636,-8.03,-9.07,3.57,0.01,-0.28,1.04
637,-8.50,-11.10,3.10,0.00,-0.28,1.04
638,-10.18,-12.15,2.44,0.02,-0.29,1.04
639,-8.50,-12.82,2.52,0.03,-0.29,1.04
640,-10.12,-13.54,1.77,0.04,-0.28,1.05
641,-8.78,-14.41,1.37,0.05,-0.28,1.03
642,-8.70,-12.26,0.72,0.05,-0.28,0.98
643,-13.66,-14.53,-0.53,0.05,-0.29,0.99
644,-13.16,-14.61,-0.35,0.06,-0.29,0.99
645,-13.16,-13.11,-0.40,0.05,-0.30,0.99
646,-15.28,-16.46,-1.19,0.04,-0.30,1.00
647,-17.79,-18.66,-1.86,0.04,-0.30,1.00
648,-17.53,-22.37,-2.92,0.04,-0.30,0.99
649,-21.04,-28.09,-5.13,0.04,-0.30,1.00
650,-21.30,-26.78,-4.89,0.07,-0.30,0.99
651,-21.69,-23.80,-5.24,0.08,-0.30,1.02
652,-19.98,-21.13,-4.66,0.07,-0.30,1.00
653,-20.52,-22.53,-5.56,0.06,-0.31,1.02
654,-19.27,-22.64,-5.37,0.06,-0.31,1.01
655,-19.25,-23.86,-6.15,0.07,-0.31,1.00
656,-19.16,-26.44,-7.16,0.07,-0.32,1.00
