,gyro_x,gyro_y,gyro_z,acce_x,acce_y,acce_z
0,1.44,3.59,-4.79,0.12,-0.19,1.06
1,1.50,4.50,-4.85,0.13,-0.20,1.05
2,1.34,4.66,-5.48,0.11,-0.19,1.04
3,1.50,4.56,-5.63,0.11,-0.19,1.05
4,1.63,4.53,-5.69,0.10,-0.18,1.05
5,2.38,3.47,-5.69,0.08,-0.19,1.05
6,2.46,2.55,-5.68,0.08,-0.19,1.03
7,2.37,1.76,-5.44,0.08,-0.18,1.04
8,2.17,0.50,-5.56,0.08,-0.18,1.04
9,2.44,-0.43,-5.45,0.08,-0.19,1.05
10,2.46,-1.51,-5.89,0.08,-0.19,1.05
11,2.40,-1.44,-5.77,0.08,-0.19,1.05
12,2.34,-2.44,-5.68,0.08,-0.20,1.05
13,2.47,-3.02,-5.63,0.09,-0.20,1.06
14,2.72,-3.22,-5.66,0.09,-0.21,1.06
15,2.73,-2.15,-5.48,0.09,-0.21,1.07
16,2.96,-1.34,-5.24,0.09,-0.21,1.07
17,2.67,0.63,-4.47,0.10,-0.21,1.08
18,2.53,1.95,-4.12,0.09,-0.22,1.07
19,2.72,4.06,-3.92,0.10,-0.21,1.07
20,2.92,5.18,-4.11,0.10,-0.21,1.07
21,3.10,5.73,-4.31,0.10,-0.21,1.06
22,3.80,5.59,-4.38,0.10,-0.22,1.06
23,4.27,4.73,-4.58,0.10,-0.22,1.06
24,4.40,4.24,-5.04,0.10,-0.22,1.05
25,4.27,4.47,-5.01,0.11,-0.21,1.05
26,4.06,3.74,-5.40,0.10,-0.22,1.06
27,4.32,5.42,-5.24,0.10,-0.22,1.04
28,3.83,6.40,-5.21,0.09,-0.21,1.03
29,3.37,6.79,-5.13,0.08,-0.21,1.02
30,2.60,6.82,-4.93,0.08,-0.21,1.01
31,1.88,8.46,-4.12,0.08,-0.21,1.01
32,1.53,9.01,-3.71,0.08,-0.20,1.00
33,1.42,9.30,-3.92,0.08,-0.19,1.01
34,0.90,10.67,-3.97,0.09,-0.19,0.99
35,0.75,10.64,-4.15,0.10,-0.19,0.99
36,0.32,10.99,-4.32,0.11,-0.19,1.00
37,-0.06,11.98,-4.92,0.10,-0.19,0.99
38,-0.49,10.81,-5.68,0.09,-0.19,0.97
39,-0.95,8.55,-6.47,0.08,-0.19,0.97
40,-1.22,6.49,-7.37,0.08,-0.19,0.97
41,-1.44,4.99,-7.65,0.07,-0.19,0.97
42,-1.36,4.23,-7.59,0.06,-0.19,0.98
43,-1.76,2.98,-7.74,0.04,-0.19,0.98
44,-1.91,1.56,-7.68,0.04,-0.20,0.98
45,-2.38,2.14,-7.11,0.04,-0.20,0.98
46,-2.47,2.93,-6.53,0.03,-0.19,0.99
47,-2.21,2.47,-6.21,0.04,-0.20,1.00
48,-1.74,2.61,-5.80,0.03,-0.20,1.00
49,-2.34,1.71,-5.27,0.04,-0.21,1.02
50,-2.50,0.14,-5.19,0.04,-0.21,1.04
51,-1.62,-1.59,-4.85,0.05,-0.21,1.06
52,-1.08,-1.56,-4.79,0.06,-0.21,1.07
53,-0.63,-1.86,-4.99,0.06,-0.21,1.07
54,-0.58,-1.50,-4.89,0.07,-0.21,1.08
55,-0.50,-0.27,-4.67,0.06,-0.21,1.07
56,-0.35,0.17,-4.78,0.06,-0.21,1.08
57,-0.26,0.47,-4.49,0.05,-0.21,1.08
58,-0.09,1.63,-4.00,0.05,-0.20,1.06
59,-0.26,1.36,-4.24,0.04,-0.20,1.06
60,-0.43,0.11,-4.26,0.04,-0.21,1.05
61,-0.87,-0.64,-4.23,0.04,-0.21,1.03
62,-0.90,-1.69,-3.91,0.05,-0.21,1.04
63,-2.03,-0.63,-3.60,0.05,-0.20,1.05
64,-1.24,-4.20,-4.02,0.05,-0.21,1.06
65,-0.18,-5.74,-4.34,0.05,-0.21,1.05
66,-0.31,-3.88,-3.86,0.05,-0.21,1.03
67,-0.99,-3.98,-3.68,0.04,-0.21,1.05
68,-0.87,-6.69,-3.62,0.04,-0.22,1.07
69,-0.81,-8.49,-3.11,0.05,-0.22,1.09
70,-0.23,-7.56,-2.64,0.06,-0.21,1.08
71,0.55,-7.39,-2.09,0.05,-0.21,1.09
72,1.16,-8.08,-1.82,0.05,-0.21,1.08
73,1.24,-6.43,-1.01,0.06,-0.21,1.06
74,1.34,-4.93,-0.44,0.06,-0.21,1.06
75,1.40,-4.53,0.06,0.07,-0.20,1.05
76,1.57,-5.11,0.29,0.07,-0.20,1.05
77,1.48,-5.51,0.73,0.06,-0.20,1.06
78,1.01,-5.85,0.96,0.07,-0.21,1.05
79,0.89,-6.53,1.05,0.07,-0.20,1.05
80,0.95,-5.80,0.92,0.08,-0.20,1.05
81,0.90,-5.36,1.40,0.07,-0.20,1.05
82,0.66,-5.25,1.42,0.09,-0.20,1.05
83,0.73,-3.31,1.56,0.09,-0.19,1.05
84,0.60,-2.82,1.66,0.09,-0.20,1.06
85,0.75,-3.34,1.54,0.09,-0.19,1.07
86,1.16,-2.72,1.45,0.10,-0.19,1.06
87,1.30,-3.21,1.13,0.09,-0.20,1.07
88,1.54,-3.91,1.18,0.09,-0.19,1.06
89,1.53,-4.26,0.96,0.09,-0.19,1.05
90,1.27,-3.82,0.85,0.09,-0.19,1.05
91,1.28,-3.01,0.76,0.09,-0.19,1.04
92,1.74,-2.85,0.96,0.08,-0.19,1.05
93,2.00,-2.35,0.98,0.08,-0.19,1.05
94,2.03,-2.00,0.96,0.07,-0.19,1.04
95,1.92,-1.86,1.48,0.08,-0.19,1.04
96,1.53,-1.33,1.82,0.07,-0.19,1.03
97,1.54,-0.73,2.17,0.07,-0.19,1.03
98,1.45,-0.37,2.37,0.07,-0.19,1.03
99,1.56,-0.17,2.56,0.07,-0.19,1.02
100,1.15,-0.20,2.72,0.07,-0.19,1.01
101,1.04,-0.66,2.79,0.06,-0.19,1.01
102,1.27,-1.47,3.25,0.05,-0.19,1.01
103,1.30,-1.82,3.63,0.05,-0.19,1.01
104,0.82,-2.17,3.94,0.05,-0.19,1.01
105,0.34,-1.91,4.52,0.06,-0.19,1.01
106,0.17,-1.56,4.67,0.07,-0.19,1.01
107,-0.26,-1.39,4.64,0.07,-0.19,1.01
108,0.08,-2.84,4.61,0.08,-0.18,1.01
109,-0.11,-3.34,4.29,0.08,-0.19,1.02
110,0.40,-4.89,4.00,0.09,-0.19,1.01
111,0.43,-4.49,4.00,0.09,-0.19,1.00
112,-0.72,-3.33,4.14,0.09,-0.20,1.00
113,-0.50,-5.37,3.88,0.09,-0.20,1.01
114,0.24,-6.79,3.18,0.09,-0.19,1.02
115,0.08,-6.79,2.98,0.09,-0.20,1.01
116,-0.12,-7.80,3.02,0.09,-0.20,1.02
117,-0.29,-9.86,2.69,0.09,-0.19,1.01
118,-0.60,-9.68,2.67,0.10,-0.20,1.01
119,-0.96,-9.53,2.90,0.11,-0.19,1.02
120,-0.64,-10.21,2.90,0.10,-0.21,1.03
121,-0.21,-9.77,2.84,0.10,-0.21,1.04
122,-0.90,-8.69,3.57,0.11,-0.21,1.05
123,-0.81,-7.79,4.06,0.11,-0.21,1.07
124,-0.52,-6.47,4.76,0.12,-0.21,1.09
125,0.60,-4.93,5.24,0.13,-0.21,1.09
126,1.48,-2.21,5.76,0.13,-0.21,1.07
127,1.37,-0.70,5.91,0.14,-0.20,1.07
128,0.73,1.71,6.00,0.15,-0.20,1.06
129,1.02,3.24,5.94,0.15,-0.20,1.05
130,1.11,2.52,5.37,0.14,-0.20,1.05
131,0.78,1.65,4.63,0.13,-0.20,1.04
132,0.20,0.08,4.35,0.13,-0.20,1.02
133,-0.23,-0.85,3.88,0.14,-0.20,1.02
134,-0.85,-1.44,3.37,0.13,-0.20,1.02
135,0.31,-3.57,3.04,0.13,-0.21,1.02
136,-0.63,-1.62,2.95,0.14,-0.21,1.01
137,-1.39,-1.48,2.41,0.14,-0.19,1.03
138,-0.92,-1.04,2.41,0.13,-0.20,1.04
139,-0.61,-1.86,1.94,0.13,-0.20,1.04
140,-0.05,-3.34,1.85,0.12,-0.20,1.06
141,0.70,-3.63,2.00,0.12,-0.20,1.08
142,1.56,-3.13,2.11,0.12,-0.21,1.06
143,1.92,-3.92,2.41,0.11,-0.21,1.07
144,1.95,-3.65,2.75,0.12,-0.21,1.06
145,1.91,-2.14,2.64,0.12,-0.21,1.06
146,1.54,-0.89,2.84,0.13,-0.21,1.05
147,1.33,-0.75,2.55,0.12,-0.20,1.04
148,0.98,-0.14,2.31,0.13,-0.20,1.04
149,0.99,-0.40,2.06,0.12,-0.21,1.04
150,1.18,-0.67,2.34,0.12,-0.21,1.05
151,1.25,-1.08,2.09,0.13,-0.21,1.05
152,1.34,-1.63,1.88,0.13,-0.21,1.06
153,2.17,-0.84,2.05,0.13,-0.21,1.07
154,2.34,1.22,2.26,0.13,-0.21,1.06
155,2.15,2.09,2.29,0.12,-0.21,1.05
156,2.44,2.93,2.46,0.13,-0.20,1.05
157,2.98,3.19,2.35,0.14,-0.20,1.05
158,3.01,2.85,2.06,0.13,-0.20,1.05
159,3.02,2.52,2.15,0.13,-0.20,1.03
160,2.72,1.79,1.83,0.14,-0.20,1.02
161,1.86,1.36,1.77,0.14,-0.19,1.02
162,1.77,0.99,1.39,0.14,-0.20,1.03
163,1.71,1.33,0.61,0.15,-0.19,1.02
164,1.62,1.15,0.17,0.14,-0.19,1.02
165,1.10,1.02,-0.11,0.13,-0.19,1.02
166,0.61,1.13,-0.37,0.13,-0.19,1.03
167,0.23,0.56,-0.85,0.14,-0.19,1.03
168,0.31,0.44,-1.27,0.14,-0.20,1.04
169,0.67,0.73,-1.88,0.14,-0.19,1.04
170,1.02,0.31,-2.29,0.13,-0.19,1.05
171,1.11,0.76,-2.31,0.13,-0.19,1.04
172,0.95,1.07,-2.44,0.12,-0.19,1.04
173,0.76,1.80,-2.23,0.11,-0.20,1.04
174,0.73,2.84,-1.92,0.11,-0.20,1.03
175,0.08,2.79,-1.54,0.10,-0.19,1.04
176,-0.02,2.95,-1.34,0.11,-0.19,1.03
177,-0.02,3.13,-1.13,0.12,-0.19,1.03
178,-0.14,3.28,-1.25,0.12,-0.19,1.03
179,0.02,2.92,-1.36,0.11,-0.19,1.03
180,-0.26,2.61,-0.90,0.11,-0.19,1.02
181,-0.55,3.11,-1.18,0.11,-0.19,1.02
182,-0.58,3.16,-1.13,0.10,-0.18,1.02
183,-1.07,3.37,-1.11,0.11,-0.19,1.01
184,-1.18,3.31,-1.24,0.10,-0.19,1.02
185,-0.87,2.70,-1.36,0.11,-0.19,1.01
186,-0.82,1.56,-1.54,0.10,-0.19,1.02
187,-0.96,0.82,-1.77,0.11,-0.19,1.01
188,-1.07,0.29,-1.94,0.10,-0.19,1.02
189,-1.10,0.27,-2.21,0.11,-0.20,1.04
190,-1.34,0.06,-2.03,0.11,-0.19,1.05
191,-1.22,1.51,-1.98,0.11,-0.19,1.05
192,-0.73,2.09,-1.89,0.12,-0.19,1.05
193,-0.55,2.61,-1.80,0.11,-0.19,1.04
194,0.14,3.01,-1.74,0.11,-0.20,1.05
195,0.26,1.97,-2.08,0.11,-0.20,1.05
196,-0.15,2.43,-2.06,0.10,-0.20,1.04
197,-0.12,2.55,-1.91,0.10,-0.20,1.04
198,-0.26,1.36,-2.17,0.09,-0.20,1.04
199,-0.24,0.84,-2.11,0.09,-0.20,1.02
200,-0.17,0.82,-2.21,0.09,-0.20,1.04
201,-0.12,1.50,-1.76,0.08,-0.19,1.03
202,-0.34,1.10,-1.60,0.07,-0.20,1.03
203,-0.18,1.08,-1.47,0.07,-0.20,1.03
204,-0.61,0.20,-1.33,0.08,-0.20,1.03
205,-1.22,0.76,-0.84,0.08,-0.20,1.05
206,-1.59,0.55,-0.58,0.09,-0.20,1.06
207,-1.27,-0.95,-0.78,0.09,-0.20,1.07
208,-1.05,0.47,-0.49,0.10,-0.20,1.06
209,-0.75,2.67,-0.14,0.10,-0.21,1.07
210,-0.70,2.24,-0.02,0.09,-0.20,1.07
211,-0.35,1.45,0.34,0.09,-0.20,1.07
212,-0.11,2.61,0.26,0.09,-0.21,1.06
213,0.34,3.10,0.69,0.09,-0.20,1.06
214,0.58,2.11,0.90,0.09,-0.20,1.06
215,0.38,1.77,0.89,0.10,-0.20,1.05
216,0.43,2.64,1.04,0.11,-0.20,1.04
217,0.55,3.59,1.10,0.10,-0.20,1.04
218,0.31,3.65,0.89,0.11,-0.20,1.04
219,0.18,3.85,0.87,0.11,-0.19,1.03
220,-0.02,3.80,0.64,0.11,-0.20,1.04
221,-0.37,3.79,0.70,0.10,-0.20,1.02
222,-0.79,3.30,0.64,0.10,-0.20,1.03
223,-0.41,2.55,0.50,0.10,-0.20,1.03
224,-0.70,1.50,-0.08,0.11,-0.20,1.03
225,-0.72,1.24,-0.49,0.11,-0.20,1.03
226,-0.75,1.10,-0.56,0.11,-0.20,1.04
227,-0.95,0.05,-0.75,0.11,-0.20,1.04
228,-0.81,-0.31,-0.67,0.11,-0.20,1.05
229,-0.61,0.18,-0.63,0.10,-0.20,1.04
230,-0.44,0.20,-0.60,0.10,-0.20,1.05
231,-0.29,0.44,-0.44,0.10,-0.20,1.06
232,-0.11,0.98,-0.43,0.10,-0.20,1.06
233,-0.15,1.40,-0.34,0.09,-0.20,1.06
234,0.12,1.40,-0.17,0.09,-0.21,1.06
235,0.31,1.89,-0.32,0.10,-0.20,1.05
236,0.12,1.34,-0.35,0.08,-0.20,1.05
237,-0.21,0.79,-0.05,0.08,-0.20,1.05
238,-0.15,0.58,0.17,0.08,-0.20,1.06
239,0.23,-0.17,0.47,0.08,-0.20,1.06
240,0.20,-0.53,0.31,0.08,-0.20,1.04
241,-0.12,-0.72,0.81,0.08,-0.20,1.04
242,0.00,-0.89,0.50,0.09,-0.20,1.05
243,0.06,-0.92,0.52,0.09,-0.20,1.05
244,0.17,-1.11,0.31,0.09,-0.21,1.05
245,0.50,-1.19,0.61,0.09,-0.20,1.05
246,0.58,-1.08,0.52,0.10,-0.20,1.05
247,0.82,-1.62,0.63,0.09,-0.20,1.05
248,0.69,-1.66,0.67,0.09,-0.20,1.04
249,0.26,-1.59,0.70,0.09,-0.20,1.03
250,-0.11,-1.94,0.85,0.09,-0.20,1.02
251,-0.08,-1.53,0.89,0.09,-0.20,1.03
252,0.06,-0.98,0.55,0.09,-0.20,1.04
253,-0.02,-1.88,0.50,0.10,-0.20,1.03
254,-0.03,-2.49,0.53,0.10,-0.19,1.03
255,-0.21,-3.02,0.34,0.09,-0.20,1.03
256,0.12,-3.36,0.37,0.10,-0.20,1.04
257,0.55,-4.05,0.31,0.10,-0.20,1.06
258,0.63,-4.06,0.35,0.10,-0.21,1.05
259,0.52,-4.12,0.34,0.10,-0.20,1.05
260,0.69,-3.76,0.14,0.11,-0.21,1.06
261,0.85,-3.15,-0.27,0.11,-0.20,1.06
262,1.27,-4.12,-0.70,0.10,-0.20,1.06
263,1.62,-4.21,-0.56,0.10,-0.20,1.05
264,0.93,-4.85,-0.99,0.11,-0.20,1.04
265,0.55,-4.87,-1.16,0.12,-0.20,1.04
266,0.98,-4.82,-1.30,0.11,-0.20,1.05
267,1.44,-4.35,-0.73,0.10,-0.20,1.04
268,1.56,-2.73,-0.18,0.10,-0.19,1.03
269,1.21,-1.02,0.50,0.10,-0.20,1.02
270,1.04,0.61,1.10,0.11,-0.19,1.02
271,0.76,1.74,1.39,0.12,-0.19,1.02
272,0.82,1.45,1.27,0.14,-0.20,1.02
273,0.61,1.18,0.76,0.14,-0.19,1.01
274,0.41,0.69,0.34,0.14,-0.20,1.01
275,0.00,0.32,0.12,0.13,-0.19,1.00
276,-0.32,-0.50,-0.52,0.13,-0.19,1.00
277,-0.43,-1.47,-0.67,0.13,-0.19,1.02
278,-0.70,-1.74,-0.84,0.13,-0.20,1.02
279,-0.78,-1.62,-1.13,0.13,-0.20,1.02
280,-0.72,-1.47,-1.16,0.12,-0.20,1.04
281,-0.84,-1.07,-1.27,0.12,-0.20,1.03
282,-1.05,-0.85,-0.93,0.10,-0.21,1.03
283,-1.08,-0.69,-0.78,0.11,-0.20,1.05
284,-0.64,0.12,-0.37,0.11,-0.21,1.04
285,-0.41,0.29,-0.47,0.10,-0.21,1.05
286,-0.11,-0.64,-0.41,0.11,-0.21,1.06
287,0.12,-0.64,-0.58,0.11,-0.20,1.06
288,-0.27,-0.72,-0.61,0.11,-0.21,1.06
289,0.02,-1.50,-0.43,0.10,-0.21,1.06
290,0.26,-1.04,-0.26,0.10,-0.21,1.06
291,0.24,-0.35,0.43,0.11,-0.21,1.06
292,0.35,0.46,0.55,0.10,-0.21,1.06
293,0.53,0.84,0.82,0.10,-0.21,1.05
294,0.52,0.53,0.96,0.10,-0.21,1.05
295,0.75,0.93,1.33,0.10,-0.20,1.05
296,0.63,0.69,1.45,0.10,-0.20,1.05
297,0.95,0.14,1.16,0.10,-0.20,1.04
298,0.98,-0.78,1.21,0.10,-0.20,1.04
299,0.81,-1.57,0.92,0.11,-0.20,1.04
300,0.98,-1.39,0.81,0.12,-0.20,1.04
301,0.76,-1.39,0.47,0.12,-0.20,1.03
302,0.81,-2.43,0.40,0.12,-0.19,1.04
303,1.05,-2.20,0.08,0.12,-0.20,1.05
304,1.13,-2.15,0.31,0.13,-0.19,1.04
305,0.98,-1.34,0.37,0.12,-0.20,1.04
306,1.01,-1.63,0.14,0.12,-0.19,1.04
307,1.04,-0.58,-0.05,0.12,-0.19,1.04
308,0.99,-0.53,-0.32,0.13,-0.20,1.04
309,1.15,-0.55,-0.69,0.13,-0.19,1.04
310,1.73,-0.44,-1.31,0.13,-0.20,1.04
311,2.05,-1.50,-2.03,0.13,-0.19,1.05
312,2.46,-2.93,-2.73,0.13,-0.20,1.05
313,2.52,-4.20,-3.51,0.12,-0.19,1.05
314,3.51,-5.02,-3.59,0.12,-0.19,1.04
315,2.93,-3.79,-3.89,0.11,-0.19,1.01
316,2.15,-7.47,-4.08,0.10,-0.20,1.04
317,2.38,-6.14,-3.92,0.11,-0.20,1.03
318,2.44,-3.28,-3.56,0.10,-0.19,1.02
319,2.44,-3.16,-3.44,0.09,-0.19,1.01
320,1.98,-2.35,-2.52,0.09,-0.19,1.00
321,0.89,-2.23,-1.48,0.08,-0.19,1.00
322,0.44,-0.92,-0.67,0.09,-0.19,1.01
323,0.95,0.35,-0.06,0.11,-0.19,1.02
324,1.11,0.58,-0.32,0.11,-0.19,1.03
325,1.01,0.56,-0.41,0.11,-0.19,1.03
326,0.55,0.55,-0.23,0.10,-0.19,1.03
327,0.05,0.61,-0.27,0.11,-0.19,1.03
328,0.02,-0.27,-0.46,0.11,-0.19,1.04
329,0.38,-0.92,-0.85,0.11,-0.19,1.03
330,1.07,-2.21,-0.84,0.11,-0.19,1.03
331,1.30,-3.39,-0.92,0.10,-0.19,1.04
332,1.50,-4.40,-0.73,0.10,-0.20,1.03
333,1.33,-4.67,-0.78,0.11,-0.19,1.03
334,1.39,-4.73,-1.10,0.11,-0.19,1.04
335,1.16,-5.33,-1.25,0.12,-0.19,1.03
336,1.01,-5.57,-1.10,0.12,-0.20,1.03
337,0.52,-5.51,-0.85,0.11,-0.20,1.03
338,0.31,-4.64,-0.64,0.12,-0.20,1.05
339,0.41,-3.66,-0.34,0.12,-0.20,1.05
340,0.84,-2.84,-0.17,0.12,-0.20,1.05
341,0.99,-1.98,0.26,0.12,-0.20,1.04
342,0.89,-0.60,0.93,0.11,-0.19,1.04
343,0.73,0.03,1.11,0.12,-0.20,1.05
344,1.01,-0.79,1.05,0.12,-0.19,1.06
345,1.60,-0.73,0.92,0.12,-0.19,1.05
346,1.71,-0.44,0.58,0.13,-0.19,1.04
347,1.57,-1.19,0.35,0.13,-0.19,1.04
348,1.21,-1.97,-0.12,0.13,-0.19,1.04
349,1.11,-2.56,-0.23,0.13,-0.19,1.04
350,1.21,-2.76,-0.49,0.13,-0.19,1.04
351,1.07,-2.96,-0.70,0.13,-0.19,1.05
352,1.05,-3.07,-0.60,0.12,-0.20,1.04
353,1.11,-3.05,-0.35,0.12,-0.20,1.04
354,1.21,-2.98,-0.29,0.13,-0.19,1.05
355,0.96,-2.67,-0.44,0.12,-0.19,1.04
356,0.82,-2.11,-0.11,0.12,-0.20,1.06
357,0.70,-2.89,-0.21,0.12,-0.20,1.06
358,1.25,-3.28,-0.02,0.13,-0.20,1.06
359,1.01,-2.24,0.05,0.13,-0.20,1.05
360,0.78,-3.13,-0.21,0.13,-0.20,1.06
361,1.01,-1.68,-0.06,0.13,-0.19,1.06
362,0.95,-3.24,0.03,0.12,-0.20,1.06
363,1.13,-2.46,-0.14,0.13,-0.20,1.06
364,1.44,-1.95,-0.08,0.14,-0.19,1.05
365,1.47,-3.21,-0.47,0.14,-0.20,1.05
366,1.34,-3.71,-0.70,0.14,-0.20,1.04
367,1.63,-4.12,-0.87,0.14,-0.19,1.06
368,1.68,-4.67,-0.92,0.14,-0.19,1.05
369,1.68,-3.89,-0.73,0.14,-0.19,1.04
370,1.44,-4.21,-0.72,0.12,-0.19,1.04
371,1.44,-3.88,-0.44,0.12,-0.19,1.04
372,0.95,-2.58,0.09,0.13,-0.19,1.04
373,1.04,-2.29,0.26,0.14,-0.19,1.04
374,0.89,-1.89,0.40,0.14,-0.19,1.05
375,0.96,-1.95,0.49,0.14,-0.19,1.04
376,0.99,-1.24,0.58,0.14,-0.19,1.04
377,1.11,-0.72,0.92,0.13,-0.19,1.04
378,1.27,-0.41,1.02,0.14,-0.19,1.02
379,1.28,0.14,1.05,0.14,-0.18,1.03
380,1.39,-0.02,0.84,0.14,-0.18,1.02
381,1.48,-0.21,0.63,0.14,-0.19,1.02
382,1.27,-0.34,0.52,0.15,-0.18,1.01
383,0.79,-0.23,0.53,0.15,-0.18,1.01
384,0.49,-0.35,0.12,0.15,-0.18,1.00
385,-0.12,-0.58,-0.09,0.14,-0.18,1.00
386,-0.11,-0.61,-0.29,0.15,-0.18,1.00
387,-0.63,-0.90,-0.56,0.15,-0.18,1.00
388,-0.70,-1.15,-0.93,0.15,-0.18,1.01
389,-0.60,-1.22,-1.16,0.15,-0.18,1.02
390,-0.61,-1.21,-1.37,0.15,-0.19,1.03
391,-0.29,-1.59,-1.37,0.14,-0.19,1.04
392,-0.23,-1.83,-1.54,0.14,-0.19,1.03
393,-0.23,-1.51,-1.51,0.15,-0.19,1.04
394,-0.06,-1.13,-1.65,0.14,-0.19,1.04
395,0.02,-1.08,-1.71,0.14,-0.19,1.04
396,-0.26,-1.25,-1.57,0.13,-0.19,1.04
397,-0.08,-1.56,-1.22,0.13,-0.20,1.04
398,0.24,-1.25,-1.16,0.13,-0.19,1.03
399,0.31,-1.45,-1.15,0.14,-0.19,1.05
400,0.63,-1.34,-0.66,0.14,-0.19,1.06
401,1.01,-1.37,-0.85,0.14,-0.20,1.06
402,0.99,-0.99,-0.70,0.14,-0.19,1.06
403,0.66,-0.55,-0.29,0.14,-0.19,1.06
404,0.47,0.09,-0.15,0.14,-0.19,1.06
405,0.70,0.55,-0.02,0.15,-0.19,1.05
406,0.73,1.04,0.29,0.15,-0.18,1.03
407,0.75,1.36,0.38,0.15,-0.18,1.04
408,0.58,2.14,0.26,0.16,-0.18,1.04
409,0.08,1.51,0.26,0.15,-0.18,1.03
410,-0.11,1.66,0.09,0.17,-0.18,1.03
411,-0.23,2.61,-0.34,0.19,-0.17,1.03
412,0.06,3.27,-1.13,0.20,-0.17,1.04
413,0.02,3.31,-1.83,0.20,-0.18,1.04
414,0.05,4.06,-2.49,0.20,-0.17,1.03
415,0.05,4.24,-2.87,0.20,-0.17,1.03
416,0.17,4.08,-3.59,0.19,-0.17,1.02
417,1.33,4.08,-4.32,0.18,-0.18,1.03
418,1.02,3.56,-4.60,0.17,-0.18,1.01
419,0.92,3.15,-5.07,0.16,-0.18,1.03
420,1.25,2.53,-5.73,0.16,-0.19,1.02
421,1.62,1.88,-5.73,0.14,-0.19,1.04
422,1.86,1.94,-5.71,0.14,-0.19,1.05
423,1.92,1.85,-5.68,0.13,-0.20,1.04
424,1.82,2.58,-5.16,0.14,-0.20,1.06
425,2.00,3.36,-4.79,0.14,-0.20,1.05
426,1.95,3.92,-4.18,0.13,-0.20,1.06
427,1.53,5.28,-3.51,0.13,-0.20,1.05
428,1.15,6.92,-3.07,0.14,-0.20,1.04
429,0.73,7.60,-2.66,0.15,-0.19,1.04
430,0.63,8.47,-2.76,0.15,-0.20,1.03
431,0.55,8.26,-2.63,0.14,-0.20,1.03
432,0.00,6.84,-2.79,0.14,-0.20,1.02
433,-0.46,6.09,-3.15,0.16,-0.20,1.03
434,-0.75,5.10,-3.45,0.17,-0.20,1.04
435,-0.53,4.40,-4.06,0.18,-0.21,1.04
436,-0.09,4.08,-4.85,0.18,-0.21,1.05
437,0.29,3.62,-5.25,0.18,-0.20,1.05
438,0.38,2.96,-5.74,0.18,-0.20,1.06
439,0.43,3.53,-6.03,0.19,-0.20,1.05
440,0.75,4.23,-6.73,0.20,-0.20,1.06
441,1.27,4.26,-7.59,0.20,-0.20,1.06
442,1.37,4.11,-8.37,0.20,-0.19,1.05
443,1.11,4.76,-8.89,0.23,-0.20,1.04
444,0.38,6.81,-9.95,0.25,-0.20,1.05
445,0.18,6.44,-11.42,0.26,-0.20,1.04
446,0.55,6.44,-13.05,0.27,-0.20,1.04
447,0.26,6.26,-14.06,0.25,-0.20,1.02
448,-0.06,5.85,-15.45,0.25,-0.20,1.03
449,-0.14,5.16,-17.01,0.27,-0.20,1.03
450,-0.35,5.86,-18.69,0.26,-0.21,1.01
451,-0.47,5.33,-20.61,0.28,-0.21,1.01
452,-0.47,4.85,-22.44,0.27,-0.22,1.03
453,-0.47,4.03,-24.00,0.27,-0.22,1.04
454,-0.98,5.39,-25.82,0.30,-0.23,1.05
455,-0.41,5.30,-27.94,0.31,-0.24,1.08
456,1.01,5.77,-29.97,0.31,-0.24,1.08
457,1.80,5.71,-32.35,0.33,-0.24,1.10
458,2.37,7.68,-33.91,0.35,-0.24,1.11
459,2.11,10.00,-36.15,0.35,-0.24,1.10
460,1.77,11.24,-39.05,0.38,-0.25,1.12
461,3.54,14.78,-42.12,0.41,-0.25,1.11
462,4.12,17.89,-45.47,0.44,-0.25,1.10
463,4.64,16.98,-50.26,0.45,-0.26,1.10
464,4.95,17.01,-55.01,0.46,-0.25,1.07
465,6.44,30.95,-56.60,0.48,-0.25,1.05
466,5.16,28.46,-60.60,0.42,-0.25,1.06
467,3.56,26.64,-62.73,0.44,-0.27,1.07
468,3.21,29.18,-65.39,0.47,-0.26,1.08
469,2.50,35.37,-67.77,0.49,-0.26,1.08
470,2.46,38.79,-71.69,0.50,-0.26,1.09
471,3.34,39.47,-75.60,0.50,-0.27,1.10
472,3.51,42.34,-78.99,0.50,-0.27,1.12
473,3.24,47.33,-81.15,0.49,-0.28,1.10
474,1.15,54.24,-80.38,0.48,-0.28,1.09
475,-1.07,56.02,-82.00,0.45,-0.28,1.08
476,0.11,53.83,-88.37,0.40,-0.30,1.08
477,-1.45,72.95,-92.50,0.44,-0.32,1.05
478,-0.53,75.88,-93.22,0.40,-0.32,1.08
479,-4.70,67.30,-75.83,0.48,-0.28,1.08
480,-2.31,55.59,-90.72,0.20,-0.38,1.07
481,-1.80,51.44,-99.11,0.29,-0.34,1.08
482,-2.27,56.99,-95.36,0.31,-0.33,1.08
483,-3.74,58.84,-99.80,0.31,-0.34,1.09
484,-3.88,59.39,-100.52,0.30,-0.34,1.08
485,-2.89,57.13,-101.15,0.30,-0.34,1.07
486,-3.39,54.89,-103.63,0.31,-0.34,1.07
487,-4.29,56.44,-104.56,0.28,-0.35,1.05
488,-4.20,59.47,-103.22,0.30,-0.34,1.06
489,-6.44,65.08,-102.35,0.32,-0.34,1.07
490,-7.71,72.93,-74.69,0.46,-0.31,1.08
491,-5.63,62.38,-90.03,0.21,-0.42,1.10
492,-1.27,51.33,-112.79,0.21,-0.40,1.09
493,1.36,46.92,-108.43,0.25,-0.37,1.05
494,2.21,43.28,-112.15,0.26,-0.37,1.04
495,1.15,41.65,-113.42,0.28,-0.38,1.05
496,1.85,37.24,-113.56,0.25,-0.38,1.04
497,2.98,36.27,-114.20,0.24,-0.38,1.04
498,3.59,37.11,-115.59,0.23,-0.40,1.02
499,5.25,39.40,-113.53,0.23,-0.40,1.03
500,5.89,54.14,-82.11,0.41,-0.29,1.01
501,2.67,50.43,-100.41,0.04,-0.44,1.00
502,6.26,36.14,-123.97,0.03,-0.41,1.01
503,9.18,30.64,-121.53,0.05,-0.41,1.00
504,11.36,26.05,-122.03,0.02,-0.41,0.98
505,13.56,24.73,-120.40,0.02,-0.41,0.98
506,15.36,22.14,-119.68,-0.01,-0.40,0.98
507,17.18,19.57,-118.14,-0.04,-0.40,0.96
508,16.76,19.08,-116.99,-0.06,-0.39,0.95
509,15.59,20.32,-115.66,-0.07,-0.38,0.96
510,14.73,17.24,-114.50,-0.08,-0.38,0.95
511,15.27,11.02,-113.77,-0.08,-0.36,0.94
512,17.16,5.83,-112.98,-0.06,-0.36,0.94
513,16.14,4.11,-113.80,-0.08,-0.35,0.94
514,14.92,1.68,-114.37,-0.07,-0.34,0.94
515,14.44,-1.37,-114.49,-0.09,-0.34,0.96
516,13.53,-8.66,-115.47,-0.11,-0.35,0.97
517,14.79,-15.25,-115.04,-0.10,-0.34,0.97
518,14.49,-22.34,-115.19,-0.11,-0.34,0.98
519,12.29,-30.93,-114.26,-0.14,-0.32,1.01
520,13.34,-35.66,-113.02,-0.15,-0.33,1.00
521,7.22,-31.39,-109.79,-0.12,-0.31,1.04
522,5.01,-29.02,-107.13,-0.09,-0.29,1.08
523,13.82,-35.56,-106.98,-0.10,-0.30,1.01
524,11.48,-26.27,-105.68,-0.07,-0.28,0.95
525,5.92,-20.23,-104.24,-0.08,-0.27,0.93
526,-0.24,-35.85,-104.09,-0.09,-0.26,0.94
527,-6.29,-56.79,-107.62,-0.06,-0.26,0.96
528,-8.73,-59.69,-108.81,-0.01,-0.25,0.98
529,-12.29,-46.26,-110.18,-0.02,-0.26,0.96
530,-15.36,-22.20,-106.60,-0.06,-0.25,0.95
531,-13.19,1.07,-98.05,-0.09,-0.25,0.91
532,-17.91,9.65,-101.80,-0.16,-0.24,0.89
533,-10.85,7.95,-95.24,-0.18,-0.26,0.86
534,-9.54,1.53,-89.68,-0.20,-0.26,0.85
535,-12.90,-5.30,-91.98,-0.21,-0.26,0.87
536,-17.77,0.12,-110.44,-0.20,-0.28,0.89
537,-8.24,12.44,-127.13,-0.19,-0.29,0.91
538,-2.90,17.04,-105.31,-0.16,-0.22,0.93
539,-0.72,13.50,-104.95,-0.17,-0.25,0.95
540,-2.35,5.50,-104.38,-0.14,-0.23,0.96
541,-4.75,-14.61,-106.26,-0.16,-0.25,0.94
542,-5.33,-29.62,-107.10,-0.14,-0.28,0.91
543,-9.80,-41.66,-110.95,-0.14,-0.25,0.91
544,-15.13,-44.46,-100.89,-0.12,-0.24,0.90
545,-19.88,-46.44,-98.72,-0.15,-0.25,0.90
546,-24.18,-55.79,-96.31,-0.15,-0.25,0.95
547,-28.37,-43.89,-94.35,-0.10,-0.25,0.97
548,-34.58,-31.36,-94.96,-0.10,-0.22,0.91
549,-43.04,-43.98,-95.07,-0.12,-0.23,1.04
550,-39.57,-33.40,-93.22,-0.10,-0.26,0.97
551,-45.65,-18.24,-88.32,-0.10,-0.26,0.93
552,-37.94,18.63,-79.68,-0.06,-0.29,0.93
553,-36.23,44.76,-73.50,-0.08,-0.28,0.96
554,-38.87,37.28,-71.76,-0.15,-0.27,0.98
555,-40.05,18.98,-71.63,-0.16,-0.28,0.94
556,-43.02,10.82,-71.47,-0.13,-0.28,0.90
557,-53.11,8.76,-69.47,-0.13,-0.28,0.90
558,-56.60,21.22,-64.61,-0.10,-0.30,0.89
559,-70.52,32.81,-61.80,-0.13,-0.30,0.98
560,-80.09,39.42,-60.34,-0.15,-0.31,1.06
561,-77.13,30.95,-57.39,-0.15,-0.33,1.03
562,-80.24,29.68,-55.02,-0.13,-0.32,1.06
563,-74.89,38.49,-51.80,-0.09,-0.35,1.03
564,-69.19,56.63,-49.97,-0.10,-0.35,1.05
565,-63.18,60.40,-44.20,-0.10,-0.36,1.04
566,-65.86,58.31,-40.78,-0.12,-0.36,1.05
567,-79.22,66.21,-36.96,-0.12,-0.36,1.04
568,-65.24,80.27,-26.12,-0.13,-0.38,1.01
569,-71.15,92.02,-11.34,-0.16,-0.37,1.02
570,-69.91,95.60,-12.11,-0.22,-0.39,1.03
571,-79.10,103.60,-12.92,-0.18,-0.39,1.01
572,-69.92,88.53,-6.78,-0.21,-0.37,1.03
573,-66.34,73.33,-7.95,-0.21,-0.39,1.03
574,-74.73,72.55,-9.39,-0.17,-0.38,1.04
575,-59.79,60.98,-8.79,-0.16,-0.43,0.98
576,-49.30,56.92,-7.07,-0.15,-0.40,1.00
577,-49.63,68.23,-2.34,-0.13,-0.40,0.97
578,-48.50,72.70,-1.10,-0.12,-0.42,0.98
579,-36.58,77.50,6.09,-0.12,-0.42,0.94
580,-32.00,72.69,8.46,-0.17,-0.42,0.94
581,-31.25,65.21,10.34,-0.22,-0.42,0.94
582,-31.97,57.25,11.21,-0.22,-0.42,0.95
583,-27.82,52.32,13.53,-0.21,-0.41,0.95
584,-22.58,48.79,15.08,-0.21,-0.43,0.96
585,-24.27,55.73,20.29,-0.17,-0.42,0.99
586,-19.85,57.56,20.05,-0.17,-0.44,0.99
587,-17.51,55.98,21.54,-0.17,-0.43,1.00
588,-16.89,50.81,20.78,-0.20,-0.44,0.99
589,-13.42,49.66,23.02,-0.16,-0.43,0.99
590,-11.86,42.40,18.40,-0.17,-0.46,1.01
591,-7.40,38.11,16.99,-0.13,-0.46,1.00
592,-6.35,34.78,12.96,-0.14,-0.45,1.01
593,-0.49,32.81,11.18,-0.13,-0.45,1.00
594,4.85,31.73,12.12,-0.12,-0.44,0.99
595,8.93,27.18,11.62,-0.17,-0.45,0.99
596,13.15,23.48,10.55,-0.16,-0.46,0.96
597,13.16,10.89,4.12,-0.20,-0.44,0.98
598,14.08,5.39,3.04,-0.19,-0.44,0.97
599,17.15,2.82,2.73,-0.20,-0.43,0.95
600,19.15,2.50,3.76,-0.19,-0.42,0.96
601,27.24,4.73,5.28,-0.18,-0.42,0.97
602,27.97,3.80,6.05,-0.17,-0.42,1.00
603,36.29,4.29,5.04,-0.18,-0.39,0.95
604,39.16,-2.14,4.63,-0.19,-0.38,0.92
605,35.95,-7.54,3.66,-0.17,-0.39,0.99
606,40.60,-0.11,4.38,-0.15,-0.38,0.98
607,38.20,-0.98,2.95,-0.19,-0.38,0.96
608,42.32,-3.60,2.18,-0.21,-0.39,0.92
609,41.89,-4.05,2.09,-0.21,-0.38,0.98
610,43.63,-7.51,1.89,-0.20,-0.38,1.00
611,44.60,-13.85,1.97,-0.18,-0.38,0.97
612,47.28,-16.31,4.95,-0.21,-0.36,0.99
613,39.92,-13.19,5.42,-0.19,-0.34,0.99
614,39.66,-18.70,5.57,-0.19,-0.36,0.99
615,36.09,-12.49,6.70,-0.16,-0.35,0.99
616,25.50,-11.19,6.75,-0.13,-0.34,1.08
617,23.74,-13.48,5.30,-0.11,-0.34,1.02
618,17.22,-17.59,4.08,-0.10,-0.34,1.06
619,19.54,-14.67,4.20,-0.09,-0.35,1.02
620,8.61,-20.14,2.29,-0.10,-0.34,1.04
621,6.20,-14.17,2.35,-0.08,-0.34,1.04
622,5.34,-11.16,2.24,-0.08,-0.33,1.06
623,3.15,-6.21,2.95,-0.09,-0.34,1.06
624,2.12,-7.22,2.90,-0.10,-0.33,1.05
625,0.75,-6.95,3.10,-0.10,-0.33,1.04
626,-0.66,-6.84,3.53,-0.09,-0.33,1.06
627,-1.79,-3.36,3.80,-0.10,-0.33,1.07
628,-3.77,-1.30,4.02,-0.09,-0.33,1.04
629,-6.63,-1.57,4.60,-0.09,-0.33,1.01
630,-3.05,2.64,5.13,-0.11,-0.33,1.02
631,-5.95,9.74,6.95,-0.06,-0.32,1.03
632,-8.24,4.12,5.24,-0.09,-0.32,1.02
633,-8.44,0.85,4.98,-0.09,-0.32,1.00
634,-9.95,-2.20,4.05,-0.09,-0.33,0.98
635,-9.92,0.12,4.52,-0.08,-0.32,0.98
636,-10.56,3.37,5.05,-0.06,-0.32,0.98
637,-10.50,6.61,5.65,-0.06,-0.32,0.98
638,-10.72,9.71,6.27,-0.06,-0.32,0.98
639,-13.33,4.72,5.65,-0.08,-0.32,0.99
640,-14.60,-2.64,4.35,-0.07,-0.33,0.99
641,-15.21,-4.11,3.50,-0.05,-0.32,0.97
642,-18.82,-4.46,2.85,-0.04,-0.31,1.01
643,-18.43,-1.82,2.50,-0.04,-0.33,1.00
644,-21.22,2.84,2.56,-0.03,-0.33,1.01
645,-16.76,4.46,2.67,-0.04,-0.34,1.02
646,-18.63,3.54,2.21,-0.05,-0.34,1.03
647,-19.01,1.42,1.36,-0.06,-0.34,1.03
648,-18.75,0.79,1.13,-0.05,-0.35,1.02
649,-17.83,-0.29,0.78,-0.05,-0.35,1.02
650,-16.66,-0.85,0.53,-0.05,-0.35,1.02
651,-14.46,0.03,1.36,-0.05,-0.36,1.01
652,-15.07,0.67,1.19,-0.05,-0.35,1.01
653,-14.89,-1.18,1.21,-0.06,-0.35,1.00
654,-13.69,-0.21,0.89,-0.06,-0.35,1.00
655,-12.76,0.73,1.15,-0.05,-0.35,0.98
656,-14.61,0.11,0.89,-0.07,-0.35,0.99
657,-15.33,0.52,0.98,-0.06,-0.36,0.98
658,-13.85,1.24,1.08,-0.05,-0.36,0.96
659,-12.50,2.73,1.47,-0.06,-0.36,0.95
660,-10.49,0.55,0.46,-0.06,-0.36,0.96
661,-8.43,0.61,0.35,-0.06,-0.36,0.95
662,-5.71,-0.52,0.00,-0.07,-0.37,0.96
663,-4.06,1.08,0.08,-0.06,-0.37,0.98
664,-2.35,0.38,0.08,-0.07,-0.37,0.99
665,-0.96,0.27,0.08,-0.06,-0.37,0.99
666,0.44,-0.09,-0.34,-0.08,-0.37,0.99
667,2.02,-2.08,-0.66,-0.08,-0.37,0.99
668,3.63,-3.18,-1.01,-0.07,-0.38,0.97
669,2.70,-3.97,-1.11,-0.08,-0.36,0.98
670,2.08,-5.47,-1.54,-0.08,-0.36,0.97
671,4.96,-5.97,-1.47,-0.07,-0.37,1.00
672,1.63,-8.26,-2.40,-0.07,-0.36,0.97
673,5.42,-7.60,-2.14,-0.08,-0.37,0.96
674,6.46,0.72,-0.12,-0.06,-0.37,0.97
675,7.48,0.29,-0.44,-0.08,-0.37,0.98
676,6.02,-2.50,-0.89,-0.08,-0.36,0.96
677,6.05,-5.95,-2.03,-0.07,-0.37,0.96
678,7.07,-8.90,-2.66,-0.07,-0.37,0.97
679,8.06,-10.06,-3.15,-0.07,-0.37,0.99
680,7.54,-10.08,-3.25,-0.07,-0.37,1.00
681,7.13,-10.75,-3.62,-0.09,-0.37,1.00
682,8.14,-9.42,-2.75,-0.10,-0.38,1.01
683,9.53,-6.99,-2.08,-0.08,-0.38,1.01
684,9.10,-4.95,-1.15,-0.08,-0.36,1.01
685,9.22,-3.62,-0.89,-0.08,-0.37,1.01
686,8.99,-1.97,-0.43,-0.08,-0.36,0.99
687,8.46,-2.64,-0.14,-0.10,-0.36,1.00
688,7.74,-2.84,0.47,-0.09,-0.36,0.99
689,6.09,-0.99,1.05,-0.08,-0.35,0.98
690,5.16,-0.85,1.66,-0.09,-0.35,0.99
691,4.06,0.46,2.12,-0.07,-0.35,0.98
692,3.74,2.40,2.43,-0.07,-0.34,0.98
693,3.54,3.60,2.64,-0.06,-0.35,0.98
694,3.25,4.47,2.70,-0.06,-0.35,0.98
695,2.99,5.80,2.79,-0.06,-0.34,0.98
696,2.69,6.69,2.78,-0.08,-0.35,0.99
697,2.18,6.41,2.84,-0.07,-0.35,0.98
698,1.51,5.28,2.56,-0.08,-0.36,0.99
699,1.79,6.08,2.87,-0.07,-0.36,0.99
700,1.73,6.56,2.87,-0.08,-0.35,1.00
701,1.80,4.96,2.46,-0.09,-0.37,1.00
702,2.00,4.87,2.98,-0.10,-0.37,0.99
703,1.91,3.88,3.15,-0.10,-0.36,1.01
704,2.02,3.39,3.22,-0.10,-0.36,0.99
705,2.26,4.11,3.59,-0.09,-0.35,0.99
706,3.28,4.23,4.46,-0.10,-0.36,0.99
707,1.56,3.63,4.41,-0.09,-0.36,1.00
708,1.11,3.39,4.56,-0.09,-0.35,0.99
709,1.91,4.76,4.84,-0.08,-0.36,1.00
