,gyro_x,gyro_y,gyro_z,acce_x,acce_y,acce_z
0,-1.83,3.57,-8.87,0.03,-0.13,1.07
1,-1.50,4.49,-8.99,0.03,-0.13,1.06
2,-0.63,3.74,-9.54,0.01,-0.14,1.08
3,-0.40,3.27,-10.08,0.01,-0.14,1.09
4,0.09,4.05,-10.14,0.01,-0.14,1.07
5,0.12,3.66,-10.55,0.01,-0.13,1.07
6,-0.41,2.82,-11.28,0.01,-0.13,1.06
7,-0.23,2.76,-11.56,0.01,-0.14,1.07
8,-0.08,3.94,-11.69,0.00,-0.14,1.07
9,-0.02,3.65,-12.08,0.00,-0.14,1.08
10,-0.08,2.78,-12.60,0.01,-0.14,1.08
11,0.08,3.28,-12.92,0.01,-0.14,1.07
12,0.47,2.99,-13.22,0.00,-0.13,1.07
13,0.53,2.53,-13.44,0.02,-0.14,1.07
14,0.78,1.21,-14.29,0.01,-0.13,1.07
15,0.53,0.56,-14.50,0.02,-0.14,1.07
16,1.11,-0.02,-15.19,0.02,-0.13,1.07
17,1.54,-0.85,-15.73,0.02,-0.14,1.08
18,2.53,-1.01,-16.37,0.02,-0.15,1.08
19,3.15,-2.00,-16.90,0.03,-0.15,1.09
20,3.97,-3.11,-17.42,0.03,-0.15,1.08
21,4.53,-3.10,-18.03,0.04,-0.14,1.08
22,4.93,-2.29,-18.85,0.05,-0.14,1.08
23,5.30,-0.93,-19.33,0.05,-0.14,1.07
24,4.89,-0.89,-20.00,0.04,-0.14,1.06
25,4.73,-0.43,-20.40,0.04,-0.13,1.08
26,4.76,0.24,-20.70,0.04,-0.13,1.06
27,4.76,0.55,-21.40,0.04,-0.13,1.07
28,3.68,0.92,-21.94,0.04,-0.13,1.07
29,3.98,1.16,-22.60,0.04,-0.13,1.06
30,4.31,0.85,-23.54,0.04,-0.14,1.07
31,4.50,-0.29,-24.29,0.03,-0.13,1.07
32,4.92,-2.17,-25.24,0.04,-0.14,1.09
33,5.56,-2.67,-26.00,0.04,-0.14,1.08
34,6.15,-3.30,-26.47,0.04,-0.14,1.08
35,6.37,-3.92,-27.85,0.05,-0.14,1.08
36,6.93,-4.64,-28.85,0.05,-0.14,1.07
37,7.25,-4.00,-29.63,0.07,-0.14,1.07
38,7.10,-3.15,-30.29,0.07,-0.14,1.07
39,7.36,-1.59,-30.73,0.07,-0.13,1.06
40,7.33,0.78,-31.31,0.08,-0.13,1.06
41,7.53,1.82,-31.88,0.09,-0.14,1.07
42,7.69,4.60,-32.02,0.08,-0.15,1.07
43,7.95,7.15,-31.97,0.07,-0.15,1.06
44,8.00,8.79,-32.38,0.06,-0.14,1.07
45,8.08,9.18,-32.99,0.03,-0.15,1.06
46,8.12,9.39,-33.50,0.04,-0.14,1.06
47,7.76,9.37,-33.92,0.02,-0.15,1.06
48,7.77,8.40,-34.56,0.01,-0.15,1.05
49,7.36,7.66,-34.92,0.01,-0.14,1.05
50,6.89,6.52,-35.40,-0.00,-0.15,1.04
51,6.75,5.48,-35.98,-0.00,-0.15,1.04
52,6.11,4.95,-36.41,-0.01,-0.14,1.04
53,5.68,3.82,-36.89,-0.01,-0.14,1.04
54,5.50,2.56,-37.42,0.00,-0.14,1.04
55,4.90,2.43,-37.59,0.00,-0.14,1.03
56,4.24,3.22,-37.88,0.01,-0.15,1.04
57,4.03,4.15,-37.86,0.01,-0.15,1.02
58,3.45,4.29,-38.21,0.00,-0.15,1.03
59,3.42,4.31,-38.44,0.00,-0.15,1.04
60,3.30,5.31,-38.20,-0.02,-0.16,1.04
61,3.34,8.06,-38.08,-0.02,-0.16,1.04
62,3.80,7.50,-37.37,-0.04,-0.16,1.04
63,3.44,8.06,-37.36,-0.04,-0.16,1.05
64,3.66,7.94,-36.63,-0.05,-0.16,1.03
65,3.60,8.05,-36.35,-0.06,-0.16,1.04
66,3.53,6.50,-36.14,-0.07,-0.15,1.04
67,2.93,4.43,-35.91,-0.07,-0.15,1.04
68,2.75,2.64,-35.48,-0.07,-0.16,1.03
69,2.20,1.30,-35.18,-0.08,-0.15,1.03
70,1.31,0.14,-35.21,-0.06,-0.15,1.04
71,0.67,-1.83,-35.31,-0.07,-0.15,1.04
72,0.67,-3.27,-34.96,-0.08,-0.15,1.04
73,0.78,-6.29,-34.95,-0.07,-0.15,1.06
74,1.02,-9.51,-35.10,-0.07,-0.15,1.08
75,1.92,-9.25,-34.82,-0.05,-0.15,1.07
76,2.50,-9.22,-34.32,-0.05,-0.15,1.06
77,2.90,-8.89,-34.14,-0.03,-0.15,1.05
78,3.10,-7.69,-33.74,-0.03,-0.14,1.06
79,2.84,-5.57,-33.08,-0.02,-0.13,1.04
80,2.17,-4.20,-32.64,-0.02,-0.13,1.05
81,0.89,-2.63,-32.50,-0.01,-0.14,1.06
82,-0.12,-0.96,-32.18,-0.00,-0.14,1.06
83,-0.41,-0.58,-32.15,-0.01,-0.14,1.07
84,-0.81,0.27,-32.06,-0.02,-0.14,1.05
85,-0.21,-0.41,-31.82,-0.03,-0.15,1.04
86,-0.49,-0.15,-32.14,-0.04,-0.15,1.07
87,0.05,-0.78,-31.77,-0.04,-0.14,1.07
88,0.35,-0.98,-31.85,-0.03,-0.16,1.08
89,1.36,-2.20,-31.56,-0.03,-0.15,1.08
90,1.86,-2.43,-31.10,-0.03,-0.15,1.08
91,2.90,-3.73,-31.15,-0.03,-0.16,1.08
92,3.50,-4.17,-30.47,-0.02,-0.15,1.08
93,4.14,-3.24,-30.32,-0.02,-0.15,1.08
94,4.63,-4.15,-29.88,-0.02,-0.14,1.07
95,4.67,-4.85,-30.03,-0.02,-0.14,1.07
96,4.98,-5.37,-29.71,-0.01,-0.14,1.06
97,4.66,-5.28,-29.62,-0.01,-0.13,1.06
98,4.56,-7.37,-29.86,-0.01,-0.13,1.06
99,3.83,-9.56,-30.35,-0.01,-0.12,1.04
100,3.82,-10.76,-30.60,0.01,-0.12,1.05
101,1.71,-12.23,-30.99,0.02,-0.12,1.05
102,1.54,-12.32,-31.22,0.03,-0.12,1.05
103,1.85,-10.32,-31.40,0.04,-0.12,1.05
104,2.12,-8.90,-31.37,0.05,-0.12,1.06
105,2.21,-5.92,-31.33,0.05,-0.12,1.06
106,1.86,-2.58,-30.82,0.06,-0.12,1.05
107,1.25,-1.18,-30.67,0.05,-0.12,1.06
108,0.70,1.36,-30.81,0.06,-0.12,1.06
109,0.85,3.37,-30.20,0.06,-0.12,1.05
110,0.46,4.64,-30.00,0.05,-0.13,1.04
111,-0.20,4.63,-30.32,0.03,-0.12,1.05
112,-0.29,3.62,-30.79,0.03,-0.12,1.05
113,-0.37,2.67,-31.48,0.03,-0.13,1.07
114,0.24,1.60,-31.31,0.04,-0.14,1.08
115,1.04,0.85,-31.76,0.03,-0.13,1.07
116,1.42,0.12,-32.14,0.02,-0.14,1.05
117,1.77,-1.16,-32.24,0.01,-0.14,1.05
118,1.31,-2.09,-32.31,0.01,-0.13,1.05
119,1.11,-2.47,-32.26,0.03,-0.13,1.06
120,1.07,-2.78,-32.14,0.04,-0.13,1.06
121,0.85,-2.03,-32.44,0.05,-0.14,1.05
122,0.78,-0.85,-32.52,0.05,-0.13,1.05
123,0.90,1.25,-32.34,0.06,-0.13,1.05
124,1.05,2.63,-32.06,0.06,-0.13,1.05
125,0.35,4.40,-31.85,0.06,-0.12,1.03
126,-0.20,4.03,-32.50,0.05,-0.13,1.04
127,-0.70,3.97,-32.81,0.04,-0.13,1.05
128,-1.01,4.58,-32.89,0.05,-0.13,1.05
129,-1.18,3.54,-33.15,0.04,-0.13,1.07
130,-0.84,2.40,-33.34,0.02,-0.13,1.05
131,-0.37,2.52,-33.79,0.03,-0.14,1.06
132,0.05,2.24,-33.07,0.03,-0.14,1.08
133,0.70,2.17,-33.31,0.04,-0.14,1.07
134,0.66,2.18,-33.42,0.04,-0.14,1.06
135,1.40,1.65,-33.28,0.04,-0.14,1.08
136,1.08,1.27,-33.31,0.04,-0.13,1.05
137,1.11,1.47,-33.25,0.04,-0.13,1.04
138,0.87,1.73,-32.98,0.05,-0.12,1.06
139,0.23,1.31,-33.44,0.05,-0.13,1.07
140,-0.17,1.53,-33.83,0.06,-0.13,1.05
141,-0.32,0.89,-34.35,0.05,-0.14,1.05
142,-0.29,1.86,-34.75,0.06,-0.13,1.05
143,0.34,2.40,-35.15,0.06,-0.14,1.07
144,0.55,4.73,-34.99,0.06,-0.14,1.06
145,0.60,6.12,-34.69,0.04,-0.14,1.06
146,0.50,6.52,-34.70,0.03,-0.14,1.06
147,0.35,7.15,-34.56,0.04,-0.13,1.05
148,-0.03,6.73,-34.78,0.03,-0.14,1.06
149,-0.03,5.31,-34.73,0.02,-0.14,1.06
150,0.00,4.37,-34.84,0.02,-0.14,1.08
151,0.70,3.89,-34.82,0.03,-0.15,1.08
152,1.33,3.10,-35.13,0.03,-0.15,1.07
153,1.83,1.86,-35.19,0.03,-0.15,1.07
154,2.34,1.10,-35.37,0.02,-0.14,1.07
155,2.67,0.37,-35.39,0.02,-0.14,1.07
156,2.87,-0.69,-35.54,0.03,-0.14,1.08
157,3.19,-0.43,-35.85,0.05,-0.14,1.08
158,3.27,-0.35,-35.88,0.05,-0.14,1.07
159,3.60,0.61,-36.17,0.06,-0.14,1.07
160,3.66,1.77,-36.21,0.05,-0.14,1.06
161,3.62,2.66,-36.09,0.05,-0.13,1.05
162,3.25,3.65,-36.00,0.05,-0.13,1.06
163,3.05,4.12,-35.77,0.05,-0.12,1.06
164,2.58,4.40,-36.20,0.05,-0.13,1.05
165,2.31,4.60,-36.23,0.05,-0.12,1.06
166,2.31,5.11,-36.20,0.05,-0.13,1.07
167,2.21,5.76,-36.12,0.04,-0.13,1.06
168,2.37,6.69,-35.91,0.05,-0.13,1.06
169,2.09,7.51,-35.88,0.04,-0.13,1.06
170,1.79,8.15,-35.86,0.03,-0.12,1.07
171,1.80,6.70,-36.27,0.03,-0.13,1.06
172,1.95,7.92,-35.79,0.04,-0.13,1.07
173,1.95,6.08,-36.14,0.03,-0.13,1.07
174,1.47,5.82,-36.46,0.04,-0.12,1.06
175,1.08,5.30,-36.66,0.04,-0.13,1.06
176,1.02,4.98,-36.95,0.03,-0.13,1.07
177,1.25,4.64,-37.21,0.04,-0.13,1.07
178,1.85,3.33,-37.77,0.04,-0.14,1.08
179,2.64,3.53,-37.76,0.04,-0.13,1.09
180,3.19,4.05,-37.54,0.04,-0.14,1.08
181,3.42,4.84,-37.60,0.05,-0.13,1.09
182,3.66,5.88,-37.62,0.06,-0.13,1.07
183,3.82,6.79,-37.54,0.06,-0.12,1.07
184,3.89,8.00,-37.88,0.05,-0.12,1.06
185,3.53,7.69,-38.09,0.05,-0.12,1.06
186,3.08,6.84,-38.50,0.05,-0.11,1.05
187,3.19,5.63,-38.87,0.05,-0.11,1.05
188,3.07,4.87,-39.50,0.06,-0.12,1.06
189,3.07,4.76,-40.27,0.06,-0.12,1.06
190,3.11,4.26,-41.11,0.05,-0.12,1.06
191,3.42,4.63,-41.39,0.06,-0.12,1.06
192,3.74,5.13,-41.48,0.06,-0.13,1.07
193,4.11,5.68,-41.47,0.06,-0.13,1.06
194,4.58,6.82,-41.02,0.05,-0.13,1.07
195,5.05,8.14,-40.89,0.05,-0.13,1.08
196,5.69,9.54,-40.31,0.04,-0.13,1.08
197,6.11,9.95,-40.35,0.05,-0.13,1.06
198,6.20,10.38,-40.46,0.05,-0.13,1.05
199,6.08,9.22,-40.70,0.03,-0.12,1.04
200,5.89,9.27,-41.21,0.03,-0.11,1.05
201,5.57,7.92,-41.50,0.03,-0.12,1.05
202,5.28,7.25,-41.94,0.03,-0.11,1.04
203,5.05,6.55,-42.27,0.03,-0.11,1.05
204,4.84,6.26,-42.40,0.03,-0.12,1.04
205,4.32,6.69,-42.11,0.02,-0.12,1.06
206,4.35,7.89,-41.85,0.04,-0.12,1.05
207,4.26,9.42,-41.37,0.04,-0.12,1.04
208,4.29,10.50,-40.64,0.03,-0.12,1.06
209,4.69,11.27,-40.41,0.03,-0.13,1.06
210,5.07,12.12,-39.91,0.02,-0.13,1.07
211,5.82,12.37,-39.86,0.02,-0.13,1.06
212,6.56,11.91,-39.88,0.01,-0.13,1.06
213,7.11,11.47,-40.14,0.01,-0.12,1.05
214,7.27,11.51,-40.17,0.01,-0.13,1.06
215,7.79,10.75,-40.34,-0.00,-0.12,1.04
216,8.02,9.34,-40.32,0.00,-0.11,1.05
217,8.15,8.75,-40.46,0.00,-0.11,1.03
218,7.94,8.12,-41.10,0.01,-0.11,1.04
219,7.10,7.47,-41.27,0.01,-0.10,1.03
220,6.43,6.79,-41.44,0.01,-0.09,1.03
221,5.80,6.44,-41.59,0.01,-0.10,1.03
222,4.98,6.73,-41.59,0.01,-0.10,1.04
223,4.05,6.73,-41.22,0.00,-0.10,1.03
224,3.91,6.53,-41.42,-0.00,-0.10,1.04
225,3.54,5.69,-41.54,0.00,-0.10,1.04
226,3.47,5.02,-41.65,-0.00,-0.10,1.04
227,3.04,4.67,-41.73,0.00,-0.10,1.04
228,2.24,1.65,-43.62,-0.02,-0.15,1.08
229,2.92,3.27,-42.14,0.02,-0.11,1.07
230,3.21,6.93,-41.31,0.02,-0.10,1.02
231,3.51,1.91,-43.34,-0.00,-0.10,1.04
232,3.42,0.03,-43.73,-0.02,-0.12,1.06
233,3.02,2.18,-41.83,-0.01,-0.11,1.04
234,3.56,2.35,-41.91,-0.01,-0.10,1.04
235,2.99,-1.08,-43.02,-0.01,-0.10,1.05
236,2.89,-1.98,-43.33,0.00,-0.11,1.05
237,3.19,-0.92,-42.89,0.00,-0.11,1.04
238,2.40,-1.51,-43.28,-0.01,-0.10,1.05
239,2.21,-1.68,-43.39,-0.00,-0.10,1.05
240,2.00,-0.52,-43.37,0.01,-0.11,1.04
241,1.85,1.04,-42.87,0.01,-0.10,1.05
242,1.59,1.27,-42.69,0.00,-0.10,1.06
243,1.39,2.09,-42.24,0.02,-0.11,1.06
244,1.18,3.31,-42.02,0.01,-0.11,1.06
245,1.48,3.80,-41.98,0.01,-0.11,1.06
246,1.54,4.66,-41.63,0.01,-0.11,1.06
247,1.80,5.36,-41.45,0.01,-0.11,1.06
248,2.41,6.40,-41.79,0.02,-0.11,1.06
249,3.08,7.01,-41.77,0.01,-0.11,1.06
250,3.33,7.91,-41.82,0.01,-0.10,1.05
251,3.85,8.27,-42.12,0.01,-0.10,1.05
252,3.66,7.83,-42.44,0.00,-0.10,1.04
253,3.42,7.97,-42.75,0.01,-0.09,1.03
254,2.79,9.15,-42.55,0.01,-0.08,1.04
255,1.91,9.63,-42.56,-0.01,-0.08,1.03
256,0.44,8.90,-42.67,-0.00,-0.08,1.03
257,0.60,8.84,-43.25,-0.00,-0.08,1.04
258,-0.06,9.10,-43.21,-0.00,-0.08,1.03
259,-0.66,6.92,-43.37,-0.02,-0.08,1.04
260,-1.22,6.38,-43.39,-0.02,-0.09,1.04
261,-1.83,6.46,-43.34,-0.01,-0.09,1.05
262,-1.48,6.05,-43.45,-0.01,-0.09,1.03
263,-1.71,4.96,-43.83,-0.02,-0.09,1.06
264,-1.07,5.11,-43.68,-0.02,-0.10,1.05
265,-0.78,4.73,-43.48,-0.02,-0.10,1.07
266,-0.34,2.49,-43.91,-0.02,-0.10,1.06
267,-0.24,0.85,-44.47,-0.02,-0.09,1.06
268,-0.20,-0.14,-44.84,-0.01,-0.10,1.05
269,0.02,-0.93,-45.45,0.01,-0.10,1.05
270,-0.76,-1.27,-46.17,0.02,-0.09,1.05
271,-0.66,-1.11,-47.30,0.04,-0.10,1.06
272,-1.54,-1.13,-48.93,0.04,-0.10,1.06
273,-1.16,-0.20,-50.20,0.05,-0.11,1.05
274,-1.07,1.47,-51.10,0.04,-0.11,1.06
275,-0.89,2.78,-51.53,0.04,-0.11,1.05
276,-0.79,4.03,-52.17,0.03,-0.11,1.03
277,-1.16,3.34,-53.30,0.02,-0.11,1.05
278,-1.53,2.14,-54.85,0.02,-0.10,1.04
279,-1.91,1.31,-55.80,0.02,-0.11,1.05
280,-2.00,0.37,-56.73,0.02,-0.11,1.04
281,-1.95,-1.19,-58.56,0.02,-0.12,1.05
282,-1.92,-2.60,-60.26,0.03,-0.12,1.05
283,-1.98,-2.44,-61.62,0.03,-0.11,1.04
284,-1.94,-2.12,-62.12,0.02,-0.11,1.03
285,-2.08,-1.59,-62.31,0.01,-0.11,1.03
286,-2.53,-0.70,-62.09,0.01,-0.12,1.03
287,-3.10,-0.37,-61.86,0.01,-0.11,1.02
288,-4.02,-0.21,-61.50,0.01,-0.11,1.02
289,-4.18,-0.60,-60.60,-0.01,-0.13,1.04
290,-4.34,-0.96,-59.37,-0.02,-0.12,1.05
291,-3.97,-2.26,-58.70,-0.02,-0.12,1.05
292,-3.33,-3.31,-58.49,-0.00,-0.13,1.05
293,-2.72,-4.47,-58.85,0.02,-0.14,1.07
294,-1.08,-6.06,-59.89,0.03,-0.15,1.08
295,0.03,-6.58,-61.04,0.05,-0.14,1.07
296,0.79,-5.69,-62.02,0.06,-0.14,1.07
297,1.04,-4.75,-62.95,0.06,-0.13,1.06
298,1.37,-3.79,-64.00,0.07,-0.14,1.07
299,1.36,-2.69,-64.93,0.07,-0.13,1.08
300,1.21,-2.38,-65.97,0.08,-0.13,1.09
301,2.02,0.17,-66.38,0.08,-0.13,1.06
302,1.42,1.97,-66.32,0.06,-0.12,1.06
303,0.64,1.92,-66.70,0.05,-0.12,1.05
304,-1.01,2.20,-66.43,0.04,-0.12,1.08
305,-0.06,4.38,-65.88,0.06,-0.13,1.06
306,0.49,5.97,-65.48,0.05,-0.13,1.07
307,0.49,5.73,-65.89,0.05,-0.14,1.07
308,0.72,6.87,-66.02,0.06,-0.14,1.06
309,-0.23,8.64,-66.21,0.06,-0.12,1.06
310,-4.31,5.65,-66.35,0.07,-0.12,1.02
311,-7.89,5.37,-68.38,0.06,-0.10,1.03
312,-4.09,6.34,-67.47,0.05,-0.13,1.09
313,1.19,6.11,-67.27,0.06,-0.14,1.10
314,2.02,5.82,-67.66,0.06,-0.14,1.08
315,2.12,6.84,-67.16,0.05,-0.13,1.05
316,1.01,7.10,-66.64,0.04,-0.13,1.05
317,1.13,6.78,-66.61,0.04,-0.14,1.05
318,-0.20,6.99,-66.64,0.04,-0.14,1.06
319,-0.55,10.82,-66.20,0.05,-0.15,1.03
320,-8.67,1.51,-68.70,0.00,-0.13,1.08
321,-8.40,2.53,-67.31,0.04,-0.13,1.09
322,-2.23,5.30,-66.52,0.06,-0.16,1.11
323,2.29,6.87,-66.17,0.04,-0.15,1.10
324,4.34,6.72,-65.47,0.03,-0.15,1.09
325,5.86,5.24,-64.61,0.01,-0.14,1.08
326,4.15,4.29,-63.77,0.01,-0.12,1.06
327,4.02,4.02,-63.40,0.02,-0.12,1.06
328,3.08,4.37,-63.53,0.03,-0.13,1.06
329,3.05,4.26,-63.28,0.04,-0.13,1.04
330,1.05,1.97,-63.82,0.04,-0.12,1.06
331,-1.85,-5.91,-65.27,0.01,-0.11,1.04
332,-2.60,-2.15,-66.29,0.05,-0.10,1.03
333,-2.02,9.07,-64.29,0.09,-0.12,1.04
334,-0.63,3.56,-66.20,0.03,-0.14,1.08
335,0.78,-1.02,-68.27,0.04,-0.13,1.07
336,0.11,2.24,-67.95,0.05,-0.11,1.04
337,-0.29,3.18,-68.50,0.05,-0.11,1.04
338,-1.69,-0.09,-70.09,0.04,-0.12,1.06
339,-3.19,-1.94,-70.67,0.03,-0.12,1.04
340,-3.07,-1.77,-70.60,0.03,-0.12,1.03
341,-4.06,-3.28,-70.37,0.02,-0.11,1.02
342,-4.09,-5.44,-70.72,0.02,-0.11,1.01
343,-5.45,-7.88,-70.87,0.02,-0.11,1.03
344,-7.16,-9.76,-71.92,0.03,-0.13,1.04
345,-7.89,-11.02,-73.31,0.07,-0.14,1.06
346,-7.36,-11.44,-75.69,0.11,-0.15,1.08
347,-5.68,-10.58,-78.40,0.13,-0.16,1.08
348,-4.23,-9.63,-81.05,0.13,-0.16,1.08
349,-2.17,-7.98,-82.49,0.12,-0.15,1.08
350,-1.13,-6.58,-82.85,0.10,-0.15,1.08
351,-0.31,-6.63,-83.91,0.09,-0.16,1.09
352,0.21,-9.59,-86.60,0.09,-0.17,1.09
353,1.77,-14.73,-89.65,0.08,-0.16,1.10
354,4.40,-21.69,-93.86,0.08,-0.17,1.10
355,6.92,-30.55,-97.30,0.06,-0.17,1.10
356,9.57,-36.55,-99.57,0.06,-0.16,1.10
357,11.15,-38.73,-100.02,0.07,-0.15,1.08
358,11.56,-38.46,-98.63,0.07,-0.13,1.06
359,10.99,-34.96,-95.80,0.08,-0.11,1.02
360,9.04,-29.05,-92.61,0.10,-0.10,1.00
361,6.03,-24.96,-89.94,0.13,-0.09,1.01
362,4.58,-21.07,-88.44,0.13,-0.09,1.00
363,2.43,-17.21,-87.34,0.15,-0.09,0.99
364,0.92,-16.40,-88.34,0.13,-0.09,0.99
365,-2.06,-19.65,-89.59,0.12,-0.08,0.98
366,-3.05,-21.79,-91.37,0.12,-0.10,1.00
367,-4.52,-23.73,-92.78,0.12,-0.11,1.01
368,-5.50,-26.17,-94.11,0.11,-0.12,1.01
369,-6.06,-27.65,-95.08,0.12,-0.12,1.03
370,-6.56,-27.71,-95.59,0.13,-0.12,1.02
371,-7.69,-27.85,-96.27,0.16,-0.12,1.03
372,-9.15,-25.22,-96.35,0.18,-0.13,1.03
373,-9.89,-20.52,-95.66,0.18,-0.13,1.02
374,-10.78,-16.09,-94.06,0.17,-0.13,1.02
375,-11.04,-12.72,-92.58,0.15,-0.15,1.04
376,-10.02,-9.19,-89.57,0.14,-0.14,1.08
377,-9.07,-6.89,-87.98,0.13,-0.16,1.07
378,-7.42,-8.47,-87.66,0.11,-0.17,1.07
379,-6.21,-11.27,-87.19,0.08,-0.16,1.08
380,-4.61,-12.53,-86.66,0.09,-0.18,1.07
381,-4.29,-14.44,-85.66,0.08,-0.17,1.07
382,-3.83,-16.60,-84.09,0.05,-0.16,1.06
383,-3.83,-17.63,-81.65,0.04,-0.15,1.04
384,-4.41,-15.85,-77.94,0.05,-0.15,1.02
385,-4.82,-13.65,-74.87,0.05,-0.14,1.02
386,-4.60,-12.69,-73.47,0.07,-0.15,1.02
387,-5.02,-12.61,-72.15,0.08,-0.14,1.03
388,-6.20,-12.90,-71.45,0.08,-0.14,1.03
389,-8.43,-13.79,-70.24,0.08,-0.13,1.02
390,-10.96,-13.73,-68.17,0.08,-0.12,1.02
391,-10.52,-12.67,-66.27,0.09,-0.12,1.03
392,-13.66,-8.58,-64.44,0.12,-0.12,1.04
393,-13.05,-6.44,-62.47,0.12,-0.12,1.04
394,-11.76,-6.50,-60.63,0.10,-0.12,1.04
395,-12.49,-5.62,-58.75,0.12,-0.11,1.05
396,-13.33,-3.02,-56.43,0.13,-0.12,1.06
397,-14.61,-1.16,-55.19,0.14,-0.12,1.04
398,-16.49,-0.73,-54.02,0.12,-0.12,1.05
399,-17.40,0.34,-53.36,0.13,-0.13,1.06
400,-16.40,0.49,-52.61,0.11,-0.13,1.05
