,gyro_x,gyro_y,gyro_z,acce_x,acce_y,acce_z
0,-3.27,3.60,-18.26,0.33,-0.06,1.01
1,-3.42,3.59,-18.58,0.31,-0.06,1.01
2,-3.82,3.45,-19.02,0.31,-0.06,1.01
3,-3.98,3.11,-19.31,0.30,-0.06,1.01
4,-4.44,3.24,-19.56,0.30,-0.06,0.99
5,-5.28,3.37,-19.30,0.29,-0.05,0.99
6,-5.68,3.11,-19.27,0.28,-0.06,0.99
7,-5.53,2.37,-19.05,0.29,-0.06,1.00
8,-5.66,2.41,-19.04,0.28,-0.06,1.00
9,-5.83,2.49,-19.31,0.29,-0.05,1.01
10,-6.37,2.52,-19.13,0.29,-0.05,1.01
11,-6.92,2.49,-18.99,0.29,-0.06,1.01
12,-7.15,1.86,-18.85,0.29,-0.07,1.02
13,-7.44,1.53,-19.50,0.30,-0.07,1.01
14,-6.84,1.21,-20.37,0.29,-0.07,1.02
15,-6.99,0.75,-20.11,0.28,-0.07,1.02
16,-6.89,0.75,-20.35,0.28,-0.07,1.03
17,-6.69,0.05,-20.06,0.28,-0.08,1.03
18,-6.32,0.34,-20.56,0.29,-0.07,1.03
19,-6.17,1.40,-20.85,0.29,-0.07,1.04
20,-6.21,1.59,-20.98,0.29,-0.06,1.04
21,-6.26,1.97,-20.90,0.29,-0.07,1.04
22,-6.55,2.38,-20.70,0.30,-0.08,1.04
23,-6.46,2.66,-20.89,0.30,-0.08,1.04
24,-6.12,2.64,-20.95,0.30,-0.08,1.04
25,-5.33,2.85,-20.98,0.30,-0.08,1.04
26,-5.02,3.91,-21.02,0.30,-0.09,1.04
27,-4.78,4.69,-21.13,0.29,-0.09,1.03
28,-4.50,4.32,-21.30,0.29,-0.08,1.04
29,-4.43,4.49,-21.92,0.28,-0.07,1.04
30,-3.48,4.50,-22.32,0.28,-0.09,1.03
31,-4.81,4.64,-22.31,0.29,-0.07,1.03
32,-5.07,4.72,-22.90,0.29,-0.06,1.03
33,-5.44,3.98,-22.82,0.27,-0.06,1.03
34,-5.83,3.37,-22.93,0.28,-0.06,1.04
35,-6.14,2.72,-23.11,0.27,-0.06,1.04
36,-6.66,2.24,-22.99,0.27,-0.06,1.04
37,-6.78,2.38,-23.02,0.28,-0.07,1.05
38,-6.66,2.41,-22.92,0.29,-0.07,1.06
39,-6.34,3.39,-23.18,0.28,-0.08,1.06
40,-5.86,3.15,-23.10,0.28,-0.07,1.07
41,-5.27,3.16,-23.31,0.29,-0.07,1.07
42,-5.04,3.76,-23.62,0.28,-0.07,1.08
43,-4.44,3.25,-23.42,0.29,-0.07,1.07
44,-3.91,2.64,-24.12,0.29,-0.07,1.08
45,-3.89,3.42,-24.50,0.30,-0.07,1.06
46,-3.79,3.54,-24.72,0.30,-0.06,1.07
47,-3.57,3.11,-25.10,0.29,-0.06,1.07
48,-3.63,3.74,-25.21,0.29,-0.06,1.07
49,-3.94,4.05,-25.45,0.29,-0.06,1.06
50,-3.80,4.09,-25.97,0.29,-0.06,1.07
51,-3.92,4.44,-26.14,0.28,-0.06,1.07
52,-4.11,5.05,-26.34,0.28,-0.06,1.07
53,-3.97,5.91,-26.34,0.27,-0.06,1.07
54,-3.24,5.60,-26.66,0.26,-0.07,1.07
55,-3.04,5.13,-26.41,0.25,-0.07,1.07
56,-2.92,5.21,-26.75,0.25,-0.06,1.07
57,-2.50,4.79,-27.11,0.25,-0.06,1.05
58,-1.79,3.45,-27.18,0.24,-0.07,1.06
59,-1.50,2.60,-26.89,0.24,-0.07,1.06
60,-1.30,1.82,-26.76,0.24,-0.06,1.06
61,-1.45,2.18,-26.60,0.25,-0.06,1.05
62,-1.36,2.85,-26.52,0.25,-0.06,1.05
63,-1.37,3.36,-26.56,0.26,-0.06,1.05
64,-1.08,3.91,-26.84,0.25,-0.06,1.05
65,-1.11,4.29,-27.02,0.26,-0.06,1.04
66,-1.24,4.92,-27.07,0.25,-0.05,1.04
67,-1.48,5.08,-27.28,0.25,-0.05,1.04
68,-1.59,5.44,-27.30,0.26,-0.05,1.03
69,-1.73,5.57,-27.69,0.25,-0.05,1.04
70,-1.60,5.28,-27.83,0.23,-0.05,1.03
71,-1.65,5.76,-27.56,0.24,-0.05,1.03
72,-1.91,5.88,-27.42,0.22,-0.05,1.03
73,-2.00,5.44,-27.53,0.22,-0.05,1.03
74,-1.98,5.22,-27.39,0.21,-0.05,1.03
75,-1.97,5.30,-27.11,0.22,-0.05,1.03
76,-2.44,5.19,-27.18,0.23,-0.05,1.04
77,-2.64,4.31,-27.11,0.24,-0.04,1.03
78,-2.78,4.27,-27.25,0.23,-0.04,1.03
79,-2.92,5.74,-27.50,0.24,-0.04,1.04
80,-3.71,7.45,-27.51,0.25,-0.04,1.04
81,-3.88,7.98,-28.15,0.24,-0.05,1.05
82,-3.88,7.76,-28.84,0.23,-0.05,1.04
83,-3.36,7.89,-29.16,0.23,-0.05,1.05
84,-3.59,8.37,-29.30,0.22,-0.05,1.04
85,-3.45,8.69,-28.99,0.22,-0.05,1.05
86,-3.47,8.63,-28.84,0.21,-0.05,1.04
87,-3.08,8.03,-28.27,0.20,-0.05,1.05
88,-2.27,7.77,-27.79,0.20,-0.05,1.06
89,-2.08,8.17,-27.48,0.21,-0.05,1.05
90,-1.68,8.23,-26.93,0.20,-0.05,1.06
91,-1.36,7.97,-26.43,0.20,-0.05,1.05
92,-1.16,7.28,-26.38,0.21,-0.04,1.05
93,-0.89,6.60,-26.26,0.21,-0.03,1.05
94,-1.37,6.46,-26.05,0.21,-0.04,1.05
95,-1.34,5.51,-25.51,0.21,-0.03,1.04
96,-1.37,5.45,-24.96,0.21,-0.04,1.05
97,-1.48,6.02,-24.69,0.22,-0.03,1.05
98,-1.73,6.43,-24.37,0.21,-0.04,1.05
99,-1.47,6.61,-23.95,0.22,-0.05,1.05
100,-1.62,7.34,-24.00,0.23,-0.05,1.05
101,-1.36,7.73,-24.11,0.22,-0.04,1.06
102,-0.93,6.70,-24.34,0.22,-0.05,1.06
103,-0.41,5.51,-24.24,0.22,-0.05,1.06
104,-0.08,5.59,-24.26,0.22,-0.05,1.06
105,0.35,5.33,-24.02,0.21,-0.04,1.06
106,0.85,4.81,-23.66,0.21,-0.04,1.06
107,0.98,4.38,-23.50,0.22,-0.04,1.05
108,1.54,3.95,-22.43,0.23,-0.03,1.06
109,0.72,3.80,-22.78,0.23,-0.03,1.06
110,1.15,3.95,-23.16,0.23,-0.04,1.05
111,0.82,4.75,-23.04,0.24,-0.04,1.04
112,0.81,4.41,-23.18,0.23,-0.05,1.04
113,1.11,4.26,-23.31,0.23,-0.04,1.05
114,1.28,3.79,-23.44,0.23,-0.04,1.05
115,1.34,3.39,-23.42,0.23,-0.04,1.04
116,1.40,3.66,-23.68,0.23,-0.03,1.04
117,1.22,4.00,-23.82,0.23,-0.03,1.05
118,0.98,4.14,-24.20,0.23,-0.03,1.04
119,0.46,3.57,-24.18,0.23,-0.04,1.05
120,0.85,2.95,-24.05,0.23,-0.03,1.05
121,0.89,2.82,-24.02,0.23,-0.03,1.06
122,0.98,2.98,-23.68,0.23,-0.03,1.05
123,0.67,3.44,-23.68,0.23,-0.03,1.04
124,0.55,3.69,-23.42,0.24,-0.03,1.05
125,0.90,3.97,-23.37,0.26,-0.04,1.04
126,0.90,4.60,-23.04,0.26,-0.04,1.05
127,0.61,6.29,-23.44,0.27,-0.03,1.04
128,0.23,7.48,-23.50,0.26,-0.03,1.04
129,0.31,7.28,-23.74,0.26,-0.03,1.05
130,0.14,7.16,-24.18,0.26,-0.03,1.04
131,-0.12,6.53,-24.64,0.27,-0.02,1.04
132,-0.26,6.14,-25.16,0.27,-0.03,1.05
133,-0.18,5.39,-26.23,0.28,-0.03,1.06
134,-0.06,5.40,-27.16,0.27,-0.03,1.06
135,0.58,5.07,-28.05,0.26,-0.02,1.06
136,0.76,5.30,-28.70,0.26,-0.03,1.05
137,1.07,5.48,-29.24,0.25,-0.02,1.05
138,0.96,5.19,-29.63,0.25,-0.03,1.04
139,0.49,4.89,-30.03,0.23,-0.03,1.04
140,0.31,4.32,-30.06,0.22,-0.02,1.04
141,0.26,3.22,-29.66,0.23,-0.02,1.03
142,0.03,2.47,-29.77,0.22,-0.02,1.03
143,0.44,1.91,-30.00,0.22,-0.02,1.03
144,0.60,0.02,-30.03,0.22,-0.02,1.03
145,0.09,0.53,-30.24,0.23,-0.01,1.02
146,-0.34,1.94,-29.94,0.23,-0.01,1.03
147,-0.66,2.41,-29.89,0.23,-0.02,1.02
148,-0.67,2.11,-30.63,0.23,-0.02,1.02
149,-0.96,2.84,-30.89,0.23,-0.01,1.02
150,-1.36,3.47,-31.01,0.22,0.00,1.02
151,-1.94,2.56,-30.99,0.21,0.00,1.01
152,-2.64,2.31,-30.81,0.20,0.01,1.02
153,-3.65,2.18,-30.41,0.21,0.00,1.01
154,-4.14,1.88,-30.50,0.21,0.00,1.02
155,-4.38,1.62,-30.58,0.22,0.00,1.03
156,-4.53,2.47,-30.75,0.22,-0.00,1.03
157,-4.34,3.65,-30.96,0.21,-0.01,1.03
158,-4.41,4.98,-30.76,0.21,-0.01,1.03
159,-4.46,4.76,-30.67,0.21,-0.01,1.04
160,-4.75,4.84,-30.81,0.20,-0.02,1.05
161,-4.64,4.76,-30.67,0.18,-0.02,1.04
162,-4.17,4.21,-30.21,0.18,-0.02,1.05
163,-4.06,3.37,-30.00,0.16,-0.02,1.04
164,-3.83,2.55,-29.50,0.16,-0.02,1.05
165,-3.91,1.68,-28.93,0.16,-0.02,1.03
166,-3.85,1.08,-28.50,0.17,-0.02,1.04
167,-3.59,1.25,-28.24,0.18,-0.02,1.05
168,-3.48,1.11,-28.26,0.19,-0.02,1.04
169,-3.66,1.02,-27.56,0.19,-0.02,1.04
170,-4.11,1.21,-27.50,0.19,-0.02,1.04
171,-4.61,1.59,-27.59,0.20,-0.02,1.05
172,-4.09,2.00,-27.76,0.21,-0.02,1.05
173,-3.91,1.68,-27.76,0.19,-0.02,1.05
174,-4.06,1.47,-27.92,0.19,-0.01,1.04
175,-3.88,1.65,-27.89,0.19,-0.02,1.04
176,-4.14,1.34,-27.73,0.19,-0.02,1.05
177,-3.97,1.62,-27.47,0.20,-0.01,1.05
178,-3.89,1.85,-27.42,0.20,-0.01,1.05
179,-3.83,2.63,-27.01,0.20,-0.02,1.05
180,-4.24,3.44,-26.95,0.21,-0.01,1.05
181,-3.86,4.32,-26.98,0.21,-0.02,1.06
182,-3.92,5.11,-26.98,0.21,-0.01,1.05
183,-3.94,5.21,-27.28,0.20,-0.02,1.05
184,-3.88,4.96,-27.34,0.19,-0.01,1.05
185,-3.69,3.57,-27.33,0.17,-0.02,1.05
186,-3.48,2.66,-26.96,0.17,-0.02,1.04
187,-4.09,1.88,-26.66,0.17,-0.01,1.05
188,-3.71,0.49,-27.04,0.18,-0.02,1.05
189,-3.02,-0.26,-26.82,0.18,-0.02,1.06
190,-2.89,0.17,-26.32,0.19,-0.03,1.05
191,-2.82,0.99,-25.97,0.19,-0.02,1.06
192,-2.82,1.77,-25.54,0.20,-0.01,1.05
193,-2.82,2.34,-25.69,0.21,-0.00,1.05
194,-3.15,3.18,-25.76,0.21,-0.01,1.04
195,-3.51,4.05,-25.69,0.21,-0.00,1.04
196,-4.29,5.24,-25.77,0.20,0.00,1.04
197,-4.09,5.01,-25.68,0.20,-0.01,1.04
198,-3.97,4.47,-26.29,0.19,-0.00,1.04
199,-3.91,4.18,-26.61,0.19,-0.01,1.05
200,-3.85,4.47,-26.67,0.19,-0.00,1.05
201,-3.63,4.32,-26.78,0.18,-0.00,1.05
202,-3.33,3.97,-26.31,0.18,-0.01,1.05
203,-3.16,4.08,-26.12,0.18,-0.00,1.04
204,-3.50,3.83,-26.29,0.18,-0.00,1.05
205,-3.63,4.02,-25.77,0.18,-0.00,1.05
206,-3.69,3.50,-25.59,0.17,-0.00,1.04
207,-3.83,2.73,-25.68,0.18,-0.00,1.04
208,-4.21,3.28,-25.92,0.19,-0.01,1.04
209,-4.02,3.27,-25.76,0.18,-0.01,1.05
210,-3.89,3.65,-25.94,0.17,-0.01,1.06
211,-3.28,3.92,-25.56,0.19,-0.01,1.05
212,-3.22,4.34,-25.85,0.18,-0.01,1.05
213,-3.01,3.88,-26.26,0.18,-0.01,1.05
214,-2.90,4.00,-26.31,0.18,-0.01,1.05
215,-3.16,3.94,-25.95,0.16,0.00,1.04
216,-3.86,3.51,-25.48,0.17,0.00,1.04
217,-4.02,2.89,-25.37,0.17,-0.00,1.05
218,-4.52,2.70,-25.37,0.17,-0.01,1.05
219,-4.50,3.40,-25.30,0.19,-0.01,1.05
220,-4.49,3.47,-25.45,0.18,-0.01,1.06
221,-4.21,3.54,-25.62,0.18,-0.01,1.06
222,-3.50,3.54,-25.47,0.17,-0.01,1.06
223,-3.21,3.62,-25.40,0.18,-0.02,1.05
224,-2.63,3.27,-25.19,0.18,-0.02,1.06
225,-2.05,2.55,-25.36,0.18,-0.02,1.06
226,-1.44,2.21,-25.47,0.18,-0.02,1.07
227,-1.10,2.85,-25.22,0.18,-0.02,1.06
228,-1.13,3.01,-25.37,0.18,-0.01,1.05
229,-0.76,2.66,-25.22,0.17,-0.00,1.06
230,-0.75,2.24,-25.53,0.18,-0.01,1.05
231,-0.96,1.47,-25.27,0.17,-0.01,1.04
232,-1.02,1.69,-25.19,0.17,-0.01,1.04
233,-1.11,1.05,-25.05,0.17,-0.01,1.05
234,-1.24,0.49,-24.96,0.18,-0.01,1.05
235,-1.18,0.00,-24.44,0.18,-0.01,1.05
236,-1.28,-0.31,-24.37,0.19,-0.01,1.05
237,-1.56,-0.05,-24.14,0.19,-0.00,1.05
238,-1.82,0.05,-24.11,0.20,-0.01,1.05
239,-1.77,-0.14,-24.18,0.20,-0.01,1.06
240,-1.28,-0.27,-24.50,0.21,-0.01,1.06
241,-1.13,1.18,-24.70,0.22,-0.01,1.06
242,-0.87,1.45,-24.78,0.23,-0.00,1.06
243,-0.84,1.50,-25.04,0.23,-0.00,1.07
244,-0.84,1.24,-25.97,0.23,-0.02,1.08
245,-0.60,0.76,-26.58,0.23,-0.02,1.07
246,-0.17,1.07,-26.85,0.23,-0.01,1.07
247,0.56,1.16,-27.62,0.23,-0.01,1.06
248,0.37,1.76,-28.18,0.23,-0.02,1.06
249,0.44,1.92,-28.81,0.22,-0.00,1.05
250,0.18,1.92,-29.24,0.21,-0.01,1.04
251,0.38,1.18,-28.92,0.20,-0.01,1.04
252,-0.26,1.91,-28.85,0.21,-0.00,1.05
253,-0.44,1.10,-28.60,0.21,0.00,1.04
254,-0.41,0.70,-28.67,0.21,-0.00,1.05
255,-0.34,1.24,-28.87,0.21,-0.00,1.05
256,-0.26,1.08,-28.87,0.21,0.00,1.04
257,-0.47,2.12,-29.27,0.21,-0.00,1.05
258,-0.72,1.59,-29.54,0.20,0.00,1.05
259,-0.81,0.34,-29.62,0.21,0.00,1.04
260,-0.81,0.03,-29.53,0.21,-0.00,1.05
261,-1.15,0.23,-30.17,0.21,0.00,1.05
262,-1.31,0.56,-30.44,0.22,-0.00,1.04
263,-1.51,0.72,-30.99,0.21,0.01,1.05
264,-1.82,0.26,-31.47,0.21,0.01,1.04
265,-2.23,0.49,-31.80,0.20,0.01,1.04
266,-2.70,0.23,-31.50,0.19,0.01,1.04
267,-3.15,0.02,-31.07,0.20,0.01,1.05
268,-3.66,0.17,-30.98,0.20,0.01,1.04
269,-3.69,0.73,-30.92,0.21,0.01,1.05
270,-3.40,0.21,-31.69,0.21,0.00,1.05
271,-2.56,-0.29,-31.97,0.21,0.00,1.06
272,-2.03,0.03,-31.69,0.20,-0.01,1.07
273,-2.27,1.21,-31.74,0.20,-0.00,1.06
274,-2.18,2.06,-31.59,0.19,0.00,1.06
275,-1.98,2.08,-32.06,0.19,-0.01,1.06
276,-1.51,2.11,-32.35,0.18,-0.00,1.07
277,-1.28,1.27,-32.50,0.18,-0.00,1.06
278,-1.56,0.87,-32.63,0.17,0.01,1.06
279,-1.57,-0.31,-32.79,0.17,0.00,1.05
280,-1.88,-0.89,-32.38,0.17,0.01,1.04
281,-2.08,-2.09,-31.86,0.17,0.01,1.06
282,-2.05,-3.47,-31.34,0.18,0.02,1.06
283,-1.98,-3.16,-31.01,0.20,0.02,1.08
284,-2.09,-1.91,-31.08,0.21,0.02,1.07
285,-2.66,-0.46,-31.16,0.23,0.02,1.07
286,-2.90,0.96,-31.77,0.24,0.02,1.08
287,-2.89,2.24,-32.02,0.24,0.01,1.07
288,-2.70,3.68,-33.02,0.23,0.01,1.07
289,-2.08,4.35,-33.56,0.22,0.00,1.07
290,-1.68,4.47,-33.95,0.21,0.00,1.07
291,-1.27,4.73,-34.23,0.20,0.00,1.07
292,-0.64,4.84,-34.56,0.19,0.00,1.07
293,-0.63,5.11,-34.82,0.19,0.00,1.06
294,-0.27,4.89,-35.16,0.18,0.01,1.07
295,-0.46,5.15,-35.11,0.17,0.01,1.06
296,-0.35,4.58,-35.39,0.17,0.02,1.06
297,-0.67,3.86,-35.16,0.16,0.01,1.06
298,-0.53,2.69,-35.07,0.15,0.02,1.05
299,-1.11,2.40,-34.79,0.16,0.02,1.04
300,-1.68,2.05,-34.49,0.16,0.02,1.04
301,-1.92,1.56,-34.23,0.16,0.03,1.05
302,-2.32,1.45,-33.95,0.17,0.02,1.05
303,-2.60,1.80,-34.06,0.18,0.02,1.05
304,-2.34,1.82,-34.26,0.18,0.02,1.07
305,-1.60,1.30,-34.78,0.18,0.01,1.07
306,-1.42,1.37,-34.90,0.17,0.01,1.07
307,-1.60,2.26,-35.11,0.18,0.02,1.06
308,-1.54,1.63,-35.44,0.18,0.01,1.06
309,-1.08,1.42,-35.79,0.18,0.01,1.08
310,-0.90,3.36,-36.09,0.18,0.01,1.06
311,-1.10,4.63,-35.86,0.18,0.02,1.05
312,-1.50,4.87,-36.15,0.17,0.02,1.05
313,-1.82,5.54,-36.53,0.17,0.02,1.05
314,-1.73,5.40,-36.64,0.15,0.02,1.04
315,-1.51,4.69,-36.56,0.14,0.02,1.04
316,-2.11,4.23,-36.21,0.13,0.02,1.04
317,-2.00,3.47,-35.89,0.13,0.02,1.04
318,-1.88,3.22,-35.27,0.14,0.02,1.04
319,-1.94,3.04,-34.60,0.15,0.02,1.03
320,-1.54,2.69,-34.17,0.16,0.02,1.05
321,-1.76,3.25,-34.47,0.18,0.02,1.05
322,-1.94,4.82,-34.60,0.19,0.02,1.05
323,-2.53,5.95,-35.22,0.19,0.02,1.05
324,-2.34,6.05,-36.43,0.18,0.02,1.06
325,-1.74,5.79,-36.93,0.18,0.01,1.06
326,-1.15,5.86,-38.02,0.17,0.01,1.06
327,-0.66,5.13,-38.72,0.17,0.01,1.06
328,-0.02,3.15,-39.69,0.16,0.02,1.05
329,0.50,1.54,-40.93,0.15,0.02,1.04
330,0.53,0.93,-41.66,0.15,0.03,1.03
331,0.85,0.31,-41.82,0.13,0.03,1.03
332,0.76,-0.93,-41.59,0.13,0.04,1.03
333,0.09,-1.28,-41.05,0.15,0.03,1.03
334,-1.45,-0.70,-40.31,0.14,0.04,1.02
335,-2.58,0.49,-39.73,0.15,0.04,1.02
336,-3.44,1.71,-39.42,0.16,0.04,1.03
337,-3.73,2.31,-39.42,0.16,0.03,1.05
338,-4.05,2.60,-39.80,0.15,0.02,1.04
339,-4.12,2.64,-40.17,0.14,0.02,1.05
340,-3.63,1.76,-40.27,0.14,0.02,1.06
341,-3.21,0.73,-40.46,0.14,0.02,1.07
342,-2.63,0.76,-40.00,0.13,0.00,1.07
343,-2.03,0.63,-40.31,0.14,-0.00,1.08
344,-0.89,-0.67,-40.63,0.14,-0.00,1.08
345,0.44,-2.40,-41.88,0.14,-0.00,1.08
346,1.44,-3.36,-42.24,0.13,-0.00,1.07
347,1.98,-3.25,-42.11,0.12,0.00,1.07
348,1.66,-2.98,-41.69,0.12,0.01,1.06
349,1.42,-2.35,-40.89,0.11,0.02,1.06
350,1.16,-2.18,-40.12,0.11,0.02,1.05
351,0.21,-1.57,-39.08,0.11,0.02,1.05
352,-0.44,-0.73,-38.27,0.12,0.03,1.05
353,-0.78,-0.09,-37.92,0.13,0.02,1.06
354,-0.53,1.51,-37.74,0.14,0.02,1.07
355,-0.21,2.96,-37.85,0.15,0.01,1.08
356,-0.06,3.30,-38.20,0.15,0.01,1.08
357,0.24,3.21,-38.79,0.15,0.02,1.08
358,0.87,2.32,-39.48,0.14,0.01,1.09
359,1.77,0.75,-39.89,0.12,0.00,1.09
360,2.90,-0.87,-39.54,0.10,0.02,1.09
361,3.77,-2.70,-38.66,0.10,0.02,1.09
362,4.52,-3.31,-38.21,0.13,0.02,1.10
363,5.33,-3.11,-38.24,0.14,0.02,1.09
364,5.83,-2.06,-38.44,0.16,0.02,1.07
365,6.11,-0.70,-38.27,0.18,0.04,1.07
366,5.30,1.79,-38.24,0.19,0.04,1.06
367,4.27,4.41,-38.35,0.19,0.06,1.06
368,3.88,6.11,-38.96,0.19,0.06,1.06
369,3.40,6.24,-38.87,0.18,0.06,1.05
370,3.22,7.21,-38.73,0.17,0.07,1.05
371,2.49,7.27,-39.01,0.17,0.07,1.05
372,2.32,6.23,-39.54,0.17,0.06,1.06
373,2.90,5.13,-39.98,0.17,0.07,1.05
374,3.40,4.40,-40.23,0.18,0.06,1.05
375,2.99,4.78,-40.60,0.20,0.06,1.04
376,2.50,5.97,-41.04,0.23,0.07,1.04
377,1.83,7.34,-41.83,0.24,0.06,1.04
378,1.68,8.95,-42.20,0.24,0.07,1.04
379,1.05,10.67,-42.55,0.24,0.07,1.03
380,0.67,13.27,-43.31,0.25,0.08,1.02
381,-0.43,15.54,-44.26,0.24,0.08,1.02
382,-0.98,17.13,-45.79,0.23,0.09,1.00
383,-1.82,18.34,-47.56,0.22,0.09,0.99
384,-3.10,19.15,-48.66,0.20,0.09,0.99
385,-4.53,20.79,-48.47,0.18,0.08,0.99
386,-5.91,21.74,-48.38,0.16,0.08,0.99
387,-7.45,21.80,-48.34,0.15,0.07,0.98
388,-8.82,22.14,-48.70,0.14,0.06,0.99
389,-9.08,22.29,-49.13,0.12,0.06,0.99
390,-9.16,20.87,-49.01,0.10,0.04,1.01
391,-9.59,17.94,-48.85,0.09,0.04,1.01
392,-10.02,11.57,-48.53,0.06,0.03,1.03
393,-8.73,8.18,-48.14,0.06,0.04,1.03
394,-8.18,12.09,-47.40,0.08,0.02,1.04
395,-8.03,15.47,-47.22,0.07,0.02,1.05
396,-7.42,14.95,-47.65,0.06,0.01,1.04
397,-6.32,11.28,-48.58,0.05,0.01,1.03
398,-5.59,8.79,-48.43,0.04,0.02,1.04
399,-5.42,7.80,-47.85,0.04,0.02,1.04
400,-5.76,7.45,-46.52,0.04,0.03,1.05
