,gyro_x,gyro_y,gyro_z,acce_x,acce_y,acce_z
0,-0.06,-1.53,-5.42,0.15,-0.23,1.06
1,-0.03,-0.98,-5.37,0.15,-0.24,1.06
2,0.00,-0.34,-5.40,0.14,-0.24,1.05
3,-0.06,-0.34,-5.42,0.14,-0.23,1.05
4,-0.05,-0.75,-5.15,0.13,-0.23,1.05
5,-0.14,-0.87,-4.76,0.13,-0.23,1.05
6,0.03,-2.32,-4.35,0.13,-0.24,1.03
7,0.37,-3.04,-4.53,0.14,-0.23,1.05
8,0.14,-2.66,-4.49,0.15,-0.23,1.04
9,0.46,-2.55,-4.63,0.16,-0.23,1.03
10,0.92,-3.16,-5.10,0.15,-0.23,1.04
11,0.70,-3.10,-5.47,0.16,-0.23,1.03
12,0.60,-2.93,-5.62,0.15,-0.23,1.03
13,0.82,-3.91,-5.97,0.15,-0.23,1.02
14,1.21,-4.87,-5.94,0.14,-0.24,1.03
15,1.51,-4.69,-5.92,0.15,-0.24,1.03
16,1.79,-4.44,-5.83,0.15,-0.24,1.02
17,1.97,-3.24,-5.57,0.15,-0.24,1.01
18,1.74,-2.69,-5.44,0.15,-0.23,1.01
19,1.74,-1.88,-5.19,0.15,-0.24,1.00
20,1.39,-2.00,-4.87,0.15,-0.24,1.00
21,1.04,-3.42,-4.58,0.14,-0.24,0.97
22,0.50,-0.35,-4.21,0.15,-0.24,1.00
23,1.37,-1.15,-3.60,0.15,-0.24,1.00
24,1.56,-0.23,-3.51,0.16,-0.24,0.98
25,0.85,-2.03,-3.69,0.16,-0.23,0.98
26,0.53,-3.24,-4.41,0.17,-0.24,0.98
27,0.61,-3.40,-4.85,0.17,-0.24,0.98
28,0.73,-2.38,-4.46,0.16,-0.23,0.98
29,0.53,-2.43,-4.34,0.16,-0.23,0.99
30,0.61,-3.62,-3.98,0.15,-0.24,0.99
31,0.85,-4.78,-3.80,0.17,-0.23,0.99
32,0.41,-4.55,-3.47,0.17,-0.23,0.98
33,0.24,-1.74,-3.05,0.18,-0.22,0.99
34,0.08,1.85,-2.35,0.18,-0.22,0.99
35,-0.64,2.09,-2.05,0.18,-0.21,1.01
36,-0.92,0.40,-2.47,0.18,-0.21,1.00
37,-1.02,-1.59,-3.31,0.17,-0.21,1.00
38,-1.28,-1.69,-3.19,0.19,-0.21,0.99
39,-1.69,-0.66,-3.37,0.19,-0.20,0.99
40,-1.76,-0.26,-3.19,0.19,-0.20,1.00
41,-1.85,-0.08,-2.90,0.18,-0.20,1.00
42,-1.63,0.34,-2.93,0.19,-0.20,1.00
43,-1.89,1.04,-2.96,0.19,-0.20,1.01
44,-2.27,3.31,-2.76,0.19,-0.19,1.01
45,-2.50,4.34,-2.89,0.18,-0.19,1.02
46,-2.40,4.23,-2.99,0.17,-0.20,1.03
47,-2.05,4.15,-2.50,0.18,-0.19,1.03
48,-1.88,3.47,-2.52,0.17,-0.19,1.04
49,-1.44,2.26,-2.84,0.18,-0.19,1.02
50,-1.33,2.37,-3.28,0.17,-0.19,1.03
51,-1.50,2.31,-3.25,0.17,-0.19,1.02
52,-1.48,1.53,-3.24,0.16,-0.19,1.02
53,-1.34,1.44,-2.98,0.15,-0.20,1.02
54,-1.40,1.63,-2.53,0.16,-0.20,1.02
55,-1.51,1.33,-2.21,0.15,-0.20,1.03
56,-1.50,1.28,-2.02,0.15,-0.21,1.04
57,-1.24,0.56,-2.09,0.15,-0.21,1.04
58,-0.82,-0.27,-1.92,0.14,-0.21,1.03
59,-0.44,0.70,-1.25,0.15,-0.22,1.04
60,0.27,0.96,-1.24,0.15,-0.21,1.04
61,0.44,1.11,-0.92,0.15,-0.21,1.05
62,0.55,2.03,-0.73,0.15,-0.22,1.05
63,0.64,1.19,-0.55,0.14,-0.23,1.06
64,1.21,0.35,-0.47,0.15,-0.23,1.06
65,1.79,0.66,-0.18,0.14,-0.23,1.06
66,1.92,1.65,-0.24,0.16,-0.24,1.06
67,2.20,1.53,-0.15,0.15,-0.23,1.05
68,1.71,1.30,0.18,0.14,-0.23,1.05
69,2.03,0.46,0.23,0.15,-0.24,1.05
70,1.86,1.22,0.55,0.14,-0.24,1.04
71,1.53,1.54,1.07,0.14,-0.24,1.03
72,1.56,0.73,0.82,0.15,-0.23,1.03
73,1.62,0.63,1.16,0.15,-0.23,1.03
74,1.97,0.75,1.27,0.16,-0.23,1.02
75,1.53,0.95,1.44,0.16,-0.23,1.03
76,1.31,1.16,1.25,0.16,-0.23,1.03
77,1.28,0.08,1.11,0.15,-0.23,1.02
78,0.79,-0.89,1.11,0.15,-0.23,1.02
79,0.56,-0.89,1.13,0.15,-0.23,1.02
80,0.52,-0.61,1.42,0.16,-0.23,1.03
81,0.44,-0.56,1.57,0.16,-0.23,1.03
82,0.52,-1.33,1.74,0.15,-0.23,1.03
83,0.29,-1.66,1.92,0.16,-0.22,1.04
84,0.81,-2.03,2.21,0.14,-0.23,1.04
85,1.10,-1.92,2.24,0.14,-0.23,1.04
86,0.96,-1.56,2.53,0.15,-0.23,1.03
87,1.25,-2.34,2.84,0.15,-0.24,1.04
88,1.16,-2.26,2.56,0.16,-0.22,1.03
89,1.05,-2.05,2.79,0.17,-0.23,1.03
90,0.92,-2.20,2.84,0.16,-0.22,1.02
91,0.56,-3.15,2.89,0.17,-0.22,1.03
92,0.35,-2.41,2.72,0.17,-0.22,1.02
93,0.14,-2.11,2.37,0.18,-0.23,1.02
94,0.21,-2.64,2.17,0.18,-0.22,1.02
95,0.41,-2.52,2.08,0.16,-0.22,1.04
96,0.47,-2.29,2.27,0.16,-0.22,1.03
97,0.40,-1.77,2.38,0.17,-0.22,1.05
98,0.32,-1.66,2.15,0.17,-0.23,1.03
99,0.02,-2.46,2.41,0.16,-0.22,1.03
100,-0.08,-2.85,2.58,0.16,-0.22,1.04
101,-0.09,-2.41,2.56,0.16,-0.23,1.03
102,0.12,-2.21,2.64,0.18,-0.22,1.02
103,0.18,-2.35,2.53,0.18,-0.22,1.02
104,0.11,-2.34,2.12,0.17,-0.22,1.03
105,0.29,-2.02,1.98,0.17,-0.22,1.03
106,0.75,-3.21,1.86,0.17,-0.23,1.04
107,1.19,-3.15,2.20,0.16,-0.22,1.04
108,1.51,-2.76,2.38,0.17,-0.22,1.04
109,1.80,-2.52,2.23,0.18,-0.21,1.03
110,1.68,-2.47,2.21,0.17,-0.21,1.02
111,1.69,-2.96,2.20,0.17,-0.22,1.03
112,1.62,-2.87,2.17,0.18,-0.21,1.02
113,1.13,-2.66,2.41,0.18,-0.22,1.02
114,1.07,-2.34,2.44,0.18,-0.22,1.02
115,0.96,-2.34,2.47,0.18,-0.21,1.02
116,0.85,-2.27,2.84,0.18,-0.21,1.02
117,1.10,-1.18,2.81,0.18,-0.21,1.02
118,0.96,-0.70,2.70,0.18,-0.21,1.02
119,0.75,-0.81,2.50,0.18,-0.21,1.03
120,0.92,-0.78,2.69,0.17,-0.21,1.02
121,0.76,-0.78,2.49,0.18,-0.22,1.02
122,0.72,-1.45,1.79,0.17,-0.21,1.03
123,0.67,-1.62,2.18,0.17,-0.22,1.03
124,0.95,-1.51,2.34,0.17,-0.22,1.03
125,1.37,-1.71,2.40,0.17,-0.22,1.04
126,1.53,-2.52,2.56,0.17,-0.22,1.03
127,1.54,-1.95,2.20,0.17,-0.22,1.04
128,1.22,-1.73,2.47,0.17,-0.21,1.02
129,1.18,-2.15,2.21,0.18,-0.22,1.02
130,1.24,-2.11,2.46,0.18,-0.22,1.01
131,1.13,-1.07,2.17,0.19,-0.22,1.02
132,0.89,-0.73,2.02,0.18,-0.21,1.03
133,1.01,-1.31,1.95,0.17,-0.22,1.03
134,1.07,-1.85,1.80,0.17,-0.23,1.03
135,0.64,-2.32,1.66,0.17,-0.22,1.03
136,0.70,-2.70,1.88,0.16,-0.22,1.02
137,0.56,-3.27,1.92,0.16,-0.22,1.02
138,0.58,-3.85,1.95,0.17,-0.22,1.03
139,0.31,-4.82,2.27,0.16,-0.22,1.03
140,0.27,-4.60,2.27,0.17,-0.23,1.04
141,0.29,-3.68,2.29,0.18,-0.23,1.03
142,0.63,-3.77,2.47,0.18,-0.23,1.04
143,0.84,-3.60,2.47,0.17,-0.23,1.05
144,0.70,-3.24,2.41,0.17,-0.23,1.04
145,1.25,-3.91,2.61,0.17,-0.23,1.05
146,1.79,-4.00,3.13,0.17,-0.23,1.04
147,1.95,-4.44,3.27,0.16,-0.24,1.04
148,2.06,-3.79,3.30,0.18,-0.24,1.04
149,2.29,-3.77,3.56,0.18,-0.23,1.05
150,2.18,-3.60,3.71,0.18,-0.23,1.03
151,2.27,-3.62,3.80,0.18,-0.23,1.04
152,2.24,-4.06,3.79,0.19,-0.22,1.03
153,1.51,-4.53,3.42,0.19,-0.22,1.04
154,1.13,-2.26,3.77,0.20,-0.21,1.04
155,1.30,-1.54,3.30,0.20,-0.22,1.04
156,1.74,-1.73,3.56,0.19,-0.21,1.03
157,2.24,-2.26,3.53,0.19,-0.23,1.03
158,2.61,-2.24,3.11,0.20,-0.22,1.04
159,3.04,-0.99,3.21,0.21,-0.22,1.04
160,2.92,0.60,3.28,0.20,-0.21,1.02
161,2.31,0.35,2.84,0.19,-0.22,1.01
162,2.47,-0.64,2.99,0.18,-0.22,1.02
163,2.11,-2.67,2.70,0.19,-0.21,1.01
164,1.94,-2.53,2.32,0.19,-0.20,1.00
165,1.68,-2.31,2.06,0.20,-0.20,0.99
166,1.24,-1.94,1.79,0.21,-0.20,0.99
167,0.89,-1.47,1.68,0.20,-0.20,1.00
168,0.93,-1.68,1.45,0.19,-0.20,1.00
169,0.99,-1.97,1.45,0.19,-0.20,1.00
170,0.72,-1.92,1.30,0.19,-0.19,1.00
171,0.35,-1.47,1.30,0.20,-0.20,1.00
172,0.05,-1.37,0.79,0.20,-0.20,1.00
173,-0.40,-1.13,0.41,0.20,-0.20,1.00
174,-0.75,-1.56,0.08,0.19,-0.21,1.00
175,-1.02,-2.09,0.09,0.18,-0.20,1.00
176,-1.16,-1.83,0.14,0.18,-0.21,1.01
177,-1.30,-1.82,0.31,0.17,-0.21,1.01
178,-1.18,-1.51,0.26,0.18,-0.21,1.02
179,-0.93,-1.48,0.56,0.18,-0.22,1.01
180,-0.58,-1.48,0.76,0.17,-0.22,1.02
181,-0.49,-2.18,0.99,0.17,-0.22,1.02
182,-0.76,-2.53,1.05,0.16,-0.22,1.01
183,-0.21,-2.96,1.22,0.16,-0.23,1.03
184,0.43,-3.18,1.53,0.17,-0.23,1.03
185,0.75,-3.02,1.59,0.17,-0.23,1.04
186,0.89,-2.58,1.92,0.17,-0.23,1.03
187,1.13,-2.21,2.18,0.17,-0.23,1.03
188,1.21,-2.38,2.08,0.17,-0.23,1.04
189,1.08,-2.50,2.11,0.17,-0.22,1.02
190,1.10,-2.31,2.24,0.17,-0.22,1.02
191,1.24,-2.73,2.40,0.17,-0.23,1.03
192,0.99,-2.56,2.67,0.18,-0.22,1.02
193,0.99,-2.37,2.99,0.18,-0.22,1.02
194,0.37,-1.74,3.42,0.18,-0.22,1.01
195,0.35,-1.28,3.60,0.19,-0.22,1.02
196,0.47,-0.55,3.44,0.19,-0.22,1.02
197,0.08,-0.26,3.45,0.20,-0.22,1.02
198,-0.03,-0.79,3.27,0.20,-0.21,1.02
199,0.06,-1.31,2.85,0.20,-0.21,1.03
200,0.21,-1.62,2.82,0.20,-0.21,1.01
201,0.06,-1.69,2.81,0.20,-0.21,1.02
202,0.43,-1.74,2.53,0.21,-0.22,1.03
203,0.61,-1.62,2.49,0.20,-0.21,1.02
204,0.92,-1.92,2.38,0.21,-0.21,1.02
205,1.02,-1.62,2.12,0.21,-0.21,1.02
206,0.90,-1.47,1.89,0.21,-0.21,1.02
207,0.96,-1.57,1.82,0.21,-0.20,1.02
208,1.07,-1.36,1.34,0.21,-0.20,1.03
209,1.08,-1.33,0.82,0.20,-0.20,1.03
210,0.90,-1.05,0.75,0.21,-0.21,1.02
211,0.81,-0.67,0.64,0.21,-0.21,1.02
212,0.64,-0.37,0.47,0.21,-0.21,1.02
213,0.35,-0.14,0.11,0.20,-0.21,1.01
214,0.08,-0.17,0.20,0.21,-0.21,1.02
215,0.21,-0.24,0.00,0.20,-0.21,1.02
216,0.20,-0.55,-0.26,0.20,-0.21,1.02
217,0.31,-0.27,-0.02,0.20,-0.22,1.03
218,0.12,0.02,0.09,0.20,-0.21,1.02
219,-0.18,0.21,-0.05,0.19,-0.22,1.03
220,0.06,-0.14,0.02,0.18,-0.22,1.03
221,0.17,0.34,0.40,0.19,-0.22,1.04
222,0.06,0.64,0.47,0.18,-0.23,1.03
223,0.46,0.08,0.29,0.19,-0.22,1.04
224,0.66,0.18,0.49,0.19,-0.23,1.04
225,0.92,0.32,0.29,0.19,-0.23,1.04
226,1.05,0.60,0.55,0.19,-0.22,1.04
227,1.08,1.07,0.56,0.18,-0.23,1.03
228,0.61,0.82,0.60,0.19,-0.22,1.02
229,0.52,0.46,0.73,0.19,-0.23,1.02
230,0.53,-0.03,0.41,0.19,-0.23,1.02
231,0.43,-0.21,0.49,0.19,-0.21,1.03
232,0.64,-0.12,0.78,0.18,-0.22,1.03
233,0.58,-0.23,1.30,0.18,-0.22,1.02
234,0.66,0.02,1.57,0.18,-0.21,1.03
235,0.46,-0.37,1.65,0.19,-0.22,1.03
236,0.34,0.21,1.54,0.19,-0.22,1.03
237,0.40,0.52,1.31,0.20,-0.21,1.03
238,0.21,0.18,1.31,0.19,-0.22,1.03
239,0.43,-0.69,0.99,0.20,-0.22,1.03
240,0.38,-1.31,0.64,0.20,-0.22,1.03
241,0.79,-1.89,0.60,0.20,-0.22,1.03
242,1.07,-1.54,0.55,0.20,-0.23,1.03
243,0.93,-1.73,0.37,0.21,-0.22,1.03
244,0.98,-0.87,0.15,0.21,-0.22,1.03
245,0.87,-0.60,0.29,0.20,-0.22,1.04
246,1.01,-0.11,0.18,0.21,-0.21,1.03
247,0.96,0.58,0.47,0.20,-0.21,1.03
248,0.95,1.31,0.37,0.20,-0.21,1.03
249,0.84,0.99,0.23,0.20,-0.21,1.02
250,0.56,0.50,0.50,0.20,-0.21,1.01
251,0.44,0.06,0.15,0.20,-0.21,1.01
252,0.05,-0.70,0.00,0.20,-0.21,1.02
253,0.08,-0.79,0.00,0.20,-0.21,1.01
254,-0.11,-0.53,-0.23,0.20,-0.21,1.01
255,-0.14,-0.50,-0.31,0.21,-0.21,1.01
256,-0.11,-0.52,-0.47,0.20,-0.21,1.02
257,-0.34,-0.43,-0.64,0.20,-0.21,1.02
258,-0.41,0.09,-0.44,0.19,-0.21,1.02
259,-0.72,0.00,0.03,0.19,-0.21,1.01
260,-0.84,-0.34,-0.40,0.19,-0.22,1.02
261,-0.84,-0.82,-0.56,0.20,-0.22,1.02
262,-0.79,-1.34,-0.73,0.19,-0.21,1.02
263,-0.72,-1.69,-0.43,0.18,-0.21,1.03
264,-0.26,-1.31,-0.32,0.19,-0.21,1.04
265,-0.31,-0.96,-0.43,0.19,-0.21,1.04
266,-0.15,-0.64,-0.35,0.19,-0.21,1.04
267,0.09,-1.21,-0.63,0.20,-0.22,1.04
268,0.18,-1.91,-0.64,0.19,-0.22,1.04
269,0.47,-2.63,-0.52,0.19,-0.22,1.05
270,0.89,-2.41,-0.47,0.19,-0.22,1.04
271,1.04,-2.09,-0.21,0.19,-0.22,1.03
272,0.99,-1.56,0.15,0.19,-0.22,1.03
273,0.82,-1.01,0.23,0.19,-0.22,1.02
274,1.02,-0.26,0.03,0.20,-0.22,1.03
275,0.92,0.64,0.27,0.19,-0.22,1.03
276,0.93,-0.14,0.29,0.19,-0.22,1.03
277,0.90,-2.14,0.20,0.18,-0.22,1.04
278,0.31,-1.44,0.46,0.19,-0.22,1.02
279,0.60,-2.05,0.55,0.19,-0.21,1.02
280,0.84,-1.56,0.92,0.18,-0.22,1.03
281,0.78,-3.01,0.67,0.19,-0.22,1.02
282,0.69,-2.82,0.90,0.19,-0.22,1.03
283,1.08,-2.24,0.85,0.20,-0.21,1.04
284,1.02,-0.95,1.28,0.21,-0.22,1.02
285,0.52,0.24,0.90,0.20,-0.21,1.03
286,0.64,0.20,1.11,0.20,-0.22,1.03
287,0.58,-0.98,0.90,0.19,-0.21,1.03
288,0.64,-2.00,0.61,0.19,-0.21,1.01
289,0.61,-2.17,0.44,0.20,-0.21,1.01
290,0.58,-2.26,0.40,0.20,-0.21,1.02
291,0.26,-1.66,0.79,0.20,-0.21,1.02
292,0.66,-1.74,0.95,0.20,-0.22,1.02
293,0.60,-2.35,0.63,0.21,-0.21,1.02
294,0.43,-2.05,0.49,0.21,-0.20,1.01
295,0.14,-1.31,0.63,0.20,-0.21,1.01
296,0.12,-0.76,0.66,0.20,-0.21,1.01
297,0.24,-1.21,0.79,0.19,-0.21,1.02
298,0.37,-1.68,0.93,0.20,-0.21,1.02
299,0.38,-1.68,0.90,0.20,-0.22,1.02
300,0.35,-2.32,0.95,0.20,-0.21,1.01
301,0.32,-2.26,0.78,0.20,-0.21,1.02
302,0.38,-1.85,0.67,0.21,-0.21,1.02
303,0.26,-1.60,0.44,0.20,-0.21,1.01
304,0.31,-1.54,0.61,0.20,-0.21,1.01
305,0.14,-1.01,0.93,0.20,-0.21,1.01
306,0.06,-0.67,0.70,0.20,-0.22,1.01
307,-0.03,-0.85,1.04,0.20,-0.21,1.02
308,0.11,-0.89,0.96,0.20,-0.21,1.03
309,0.14,-1.82,0.85,0.20,-0.21,1.03
310,0.49,-1.40,0.95,0.20,-0.21,1.03
311,0.69,-0.96,1.13,0.20,-0.22,1.03
312,0.35,-0.47,1.30,0.21,-0.21,1.02
313,0.00,-0.89,0.96,0.20,-0.22,1.03
314,0.15,-0.89,1.08,0.20,-0.22,1.04
315,0.29,-0.79,1.01,0.20,-0.21,1.03
316,0.40,-0.06,0.98,0.21,-0.21,1.03
317,0.37,0.31,1.01,0.20,-0.22,1.03
318,0.40,0.46,0.73,0.21,-0.21,1.02
319,0.63,0.49,0.41,0.20,-0.21,1.02
320,1.10,0.14,0.81,0.20,-0.22,1.03
321,1.21,0.27,0.70,0.20,-0.21,1.03
322,0.70,-0.08,1.15,0.20,-0.22,1.03
323,0.66,-0.24,1.19,0.20,-0.22,1.03
324,0.67,0.08,1.24,0.20,-0.22,1.02
325,0.55,1.48,1.62,0.20,-0.22,1.03
326,0.76,2.43,1.76,0.20,-0.22,1.03
327,1.11,2.46,1.88,0.20,-0.22,1.04
328,1.11,2.49,1.86,0.20,-0.21,1.03
329,1.02,2.08,1.69,0.20,-0.22,1.03
330,0.95,1.73,1.73,0.20,-0.21,1.02
331,0.96,1.02,1.79,0.20,-0.22,1.02
332,0.90,-0.26,1.40,0.20,-0.21,1.01
333,0.67,-1.11,1.05,0.21,-0.21,1.01
334,0.43,-2.06,1.08,0.21,-0.21,1.01
335,0.72,-1.94,1.10,0.21,-0.21,1.01
336,0.44,-1.36,1.02,0.22,-0.20,1.01
337,0.32,-0.20,1.02,0.21,-0.20,1.02
338,0.26,0.55,0.82,0.22,-0.21,1.02
339,0.69,0.98,0.84,0.21,-0.20,1.02
340,0.29,1.08,0.70,0.22,-0.20,1.02
341,-0.05,1.33,0.90,0.20,-0.20,1.01
342,-0.08,0.72,0.78,0.21,-0.20,1.02
343,-0.17,0.06,0.47,0.20,-0.20,1.01
344,0.11,-0.11,0.24,0.21,-0.20,1.01
345,0.35,-0.03,-0.14,0.22,-0.20,1.01
346,0.63,-0.23,-0.40,0.21,-0.20,1.00
347,0.29,-0.02,-0.38,0.20,-0.20,0.99
348,0.15,0.00,-0.37,0.19,-0.21,1.00
349,-0.15,-0.76,-0.34,0.20,-0.20,0.99
350,-0.49,-0.78,-0.34,0.20,-0.21,0.99
351,-0.47,-1.92,-0.47,0.19,-0.21,1.00
352,-0.52,-1.11,-0.18,0.20,-0.21,1.01
353,-0.63,0.15,0.02,0.20,-0.21,1.02
354,-0.17,0.72,0.09,0.20,-0.22,1.01
355,-0.17,0.61,0.02,0.20,-0.22,1.02
356,-0.26,0.79,0.46,0.20,-0.21,1.02
357,-0.52,1.21,0.61,0.19,-0.22,1.01
358,-0.14,0.00,0.55,0.20,-0.22,1.02
359,-0.18,-0.38,0.27,0.20,-0.22,1.03
360,-0.38,-0.31,0.40,0.20,-0.22,1.02
361,0.06,0.02,0.49,0.21,-0.22,1.03
362,-0.02,0.85,0.40,0.21,-0.22,1.03
363,0.02,1.91,0.76,0.20,-0.22,1.03
364,0.11,2.06,0.60,0.20,-0.22,1.03
365,0.41,1.79,0.81,0.20,-0.22,1.03
366,0.40,1.69,0.87,0.20,-0.22,1.03
367,0.55,1.42,0.89,0.20,-0.22,1.04
368,0.27,1.50,0.70,0.20,-0.22,1.03
369,0.58,1.79,0.78,0.20,-0.22,1.04
370,0.61,1.28,0.58,0.20,-0.23,1.03
371,0.34,0.67,0.38,0.20,-0.22,1.03
372,0.90,0.00,0.24,0.20,-0.21,1.03
373,1.02,-1.05,0.41,0.19,-0.22,1.03
374,1.48,-2.12,0.18,0.20,-0.21,1.04
375,1.97,-2.24,0.46,0.20,-0.21,1.03
376,1.69,-1.85,0.41,0.21,-0.21,1.03
377,1.28,-1.62,0.23,0.21,-0.20,1.03
378,0.84,-1.13,0.46,0.20,-0.21,1.03
379,0.43,-0.72,0.31,0.22,-0.20,1.03
380,0.31,-0.92,0.18,0.21,-0.21,1.03
381,0.63,-1.05,-0.17,0.21,-0.21,1.02
382,0.41,-0.35,-0.15,0.21,-0.21,1.03
383,0.52,0.00,-0.40,0.21,-0.21,1.03
384,0.53,-0.38,-0.56,0.21,-0.22,1.03
385,0.70,-1.16,-0.82,0.20,-0.21,1.03
386,0.43,-1.60,-0.90,0.20,-0.21,1.03
387,0.73,-2.20,-0.60,0.20,-0.21,1.02
388,0.58,-2.67,-0.70,0.20,-0.21,1.03
389,0.47,-2.73,-0.43,0.21,-0.21,1.03
390,0.90,-2.44,-0.53,0.20,-0.22,1.03
391,0.96,-1.51,-0.27,0.20,-0.21,1.03
392,0.67,-0.37,0.03,0.21,-0.21,1.03
393,0.99,-0.50,0.18,0.20,-0.22,1.03
394,1.22,-1.01,-0.31,0.20,-0.21,1.03
395,0.96,-1.45,-0.23,0.20,-0.22,1.02
396,1.21,-1.71,-0.67,0.21,-0.21,1.02
397,1.50,-2.43,-0.82,0.20,-0.21,1.02
398,1.47,-2.38,-1.05,0.20,-0.21,1.03
399,1.56,-2.38,-1.24,0.21,-0.20,1.02
400,1.47,-2.20,-1.11,0.20,-0.21,1.02
401,1.36,-2.08,-1.28,0.20,-0.21,1.01
402,1.48,-1.36,-0.98,0.20,-0.21,1.01
403,1.16,-1.27,-1.07,0.20,-0.21,1.01
404,0.76,-1.18,-0.82,0.20,-0.21,1.02
405,0.63,-1.07,-0.40,0.19,-0.21,1.02
406,0.95,-1.44,-0.06,0.20,-0.21,1.01
407,1.42,-1.89,-0.06,0.20,-0.21,1.02
408,1.83,-1.98,-0.20,0.21,-0.21,1.03
409,2.38,-2.05,-0.08,0.21,-0.20,1.02
410,2.90,-2.18,-0.37,0.21,-0.21,1.03
411,2.78,-2.61,-0.50,0.21,-0.20,1.03
412,3.45,-3.16,-1.08,0.21,-0.21,1.02
413,3.73,-3.04,-1.10,0.21,-0.20,1.03
414,3.76,-2.24,-0.87,0.21,-0.20,1.02
415,3.92,-1.74,-0.85,0.21,-0.21,1.02
416,5.02,-3.11,-1.10,0.21,-0.21,1.03
417,5.97,-2.44,-0.90,0.21,-0.21,1.03
418,6.35,-4.32,-0.85,0.21,-0.20,1.02
419,7.02,-8.82,-2.56,0.22,-0.20,1.02
420,6.93,-5.31,-2.09,0.23,-0.19,1.02
421,6.55,-2.14,-1.39,0.23,-0.20,1.01
422,4.95,-4.52,-1.44,0.20,-0.20,1.00
423,4.00,-6.02,-1.25,0.21,-0.20,1.00
424,3.16,-5.02,-1.07,0.21,-0.19,1.00
425,3.53,-4.76,-0.64,0.21,-0.19,1.00
426,3.44,-5.18,-0.89,0.22,-0.19,1.00
427,3.95,-5.85,-1.01,0.21,-0.19,1.01
428,4.41,-4.24,-0.99,0.24,-0.19,1.02
429,6.17,-2.09,-0.96,0.24,-0.20,1.02
430,6.29,-3.85,-1.76,0.22,-0.19,1.03
431,6.24,-5.33,-2.12,0.22,-0.19,1.03
432,6.96,-6.00,-2.02,0.21,-0.20,1.03
433,8.00,-8.93,-1.95,0.20,-0.20,1.05
434,8.73,-9.83,-2.18,0.21,-0.20,1.04
435,9.19,-9.36,-2.35,0.22,-0.20,1.04
436,9.05,-8.75,-2.08,0.22,-0.19,1.03
437,8.63,-8.23,-1.59,0.22,-0.18,1.01
438,8.66,-8.02,-1.31,0.22,-0.19,1.01
439,8.96,-7.37,-0.89,0.22,-0.18,1.01
440,8.73,-6.06,-0.50,0.23,-0.18,1.00
441,8.72,-6.26,-0.38,0.24,-0.18,1.01
442,8.20,-3.37,-0.14,0.23,-0.19,1.01
443,6.93,-2.44,0.02,0.23,-0.18,1.01
444,6.56,-2.40,-0.02,0.22,-0.18,1.01
445,5.44,-3.21,0.00,0.23,-0.18,1.01
446,4.61,-3.04,0.03,0.24,-0.18,1.02
447,3.97,-2.61,0.17,0.24,-0.18,1.02
448,3.94,-2.00,0.05,0.23,-0.19,1.02
449,4.37,-0.69,0.55,0.23,-0.19,1.04
450,4.85,0.29,1.01,0.23,-0.19,1.05
451,4.87,0.95,1.37,0.23,-0.19,1.05
452,4.14,1.45,1.18,0.23,-0.19,1.04
453,2.95,1.59,1.31,0.23,-0.19,1.03
454,2.66,0.60,1.16,0.23,-0.19,1.03
455,2.66,-0.76,0.81,0.23,-0.18,1.04
456,2.24,-1.28,0.72,0.23,-0.18,1.03
457,2.41,-1.10,0.49,0.24,-0.19,1.04
458,2.37,-0.98,0.40,0.24,-0.18,1.04
459,2.31,-0.55,0.05,0.25,-0.18,1.05
460,2.60,0.06,0.06,0.25,-0.18,1.04
461,2.44,0.00,-0.15,0.24,-0.18,1.05
462,2.56,0.43,-0.18,0.25,-0.18,1.04
463,2.55,0.73,-0.20,0.24,-0.19,1.05
464,2.85,0.89,-0.20,0.24,-0.18,1.04
465,2.61,0.78,-0.24,0.23,-0.18,1.04
466,2.67,0.53,-0.34,0.23,-0.18,1.04
467,3.08,0.63,-0.52,0.24,-0.17,1.04
468,3.34,1.10,-0.64,0.24,-0.18,1.03
469,2.98,1.24,-0.69,0.23,-0.18,1.02
470,3.11,0.23,-0.90,0.22,-0.17,1.03
471,2.87,-0.43,-0.84,0.22,-0.18,1.03
472,2.73,-0.17,-0.55,0.23,-0.17,1.02
473,2.56,-0.38,-0.46,0.23,-0.17,1.02
474,2.49,-0.35,-0.49,0.23,-0.17,1.02
475,2.12,-0.18,-0.66,0.23,-0.17,1.02
476,1.92,-0.32,-0.96,0.23,-0.17,1.03
477,1.92,-0.29,-0.67,0.23,-0.18,1.01
478,1.89,-0.66,-0.58,0.22,-0.17,1.02
479,1.73,-0.96,-0.69,0.22,-0.18,1.01
480,2.20,-1.50,-0.34,0.21,-0.18,1.02
481,2.08,-1.74,-0.52,0.23,-0.18,1.02
482,2.05,-1.48,-0.53,0.23,-0.19,1.03
483,2.20,-0.79,-0.15,0.23,-0.17,1.02
484,2.35,-1.24,-0.27,0.22,-0.18,1.03
485,2.46,-1.63,-0.27,0.22,-0.17,1.01
486,2.53,-1.85,0.09,0.23,-0.17,1.02
487,2.56,-1.51,0.09,0.23,-0.16,1.01
488,2.63,-2.66,-0.18,0.24,-0.17,1.01
489,2.78,-3.11,-0.50,0.23,-0.16,1.02
490,2.72,-3.82,-0.99,0.24,-0.16,1.02
491,2.26,-3.44,-1.01,0.25,-0.16,1.01
492,1.69,-2.05,-0.84,0.24,-0.15,1.00
493,1.27,-0.96,-1.13,0.24,-0.15,1.01
494,0.66,-0.98,-1.60,0.24,-0.16,1.01
495,0.35,-1.13,-1.62,0.24,-0.15,1.01
496,0.82,-2.50,-1.89,0.23,-0.16,1.03
497,0.96,-2.31,-1.82,0.23,-0.17,1.01
498,1.24,-2.67,-1.95,0.22,-0.17,1.02
499,1.54,-3.63,-2.03,0.22,-0.17,1.03
500,1.37,-3.10,-2.06,0.23,-0.17,1.03
501,1.13,-2.41,-1.83,0.23,-0.18,1.03
502,1.76,-2.41,-1.98,0.24,-0.18,1.04
503,1.89,-2.52,-1.74,0.24,-0.18,1.04
504,2.17,-2.38,-1.83,0.24,-0.18,1.04
505,2.21,-2.55,-2.20,0.25,-0.18,1.04
506,2.43,-2.52,-2.29,0.25,-0.18,1.04
507,2.64,-1.88,-2.53,0.26,-0.18,1.04
508,2.67,-1.57,-2.87,0.27,-0.18,1.03
509,2.63,-1.63,-3.01,0.27,-0.17,1.04
510,2.29,-1.71,-3.21,0.28,-0.17,1.03
511,2.58,-1.57,-3.80,0.30,-0.16,1.03
512,3.37,-0.82,-4.49,0.31,-0.16,1.04
513,3.37,-0.03,-5.34,0.33,-0.16,1.04
514,3.79,0.55,-6.56,0.34,-0.16,1.04
515,4.00,1.28,-7.94,0.37,-0.16,1.03
516,4.15,2.78,-9.11,0.39,-0.17,1.01
517,3.95,4.81,-10.75,0.41,-0.18,1.04
518,4.37,4.82,-12.92,0.43,-0.19,1.03
519,4.21,6.41,-15.51,0.48,-0.22,1.02
520,3.79,8.50,-18.12,0.50,-0.22,1.02
521,4.17,12.02,-20.02,0.51,-0.22,1.03
522,2.98,14.95,-22.03,0.51,-0.23,1.03
523,2.92,15.11,-24.43,0.53,-0.23,1.04
524,2.76,19.48,-25.63,0.56,-0.23,1.03
525,1.66,21.73,-28.15,0.57,-0.24,1.05
526,1.54,26.49,-31.02,0.62,-0.23,1.05
527,0.75,32.26,-35.53,0.67,-0.22,1.06
528,0.75,36.61,-39.53,0.69,-0.22,1.07
529,2.76,39.39,-43.95,0.70,-0.23,1.08
530,2.31,40.12,-48.11,0.69,-0.22,1.09
531,3.19,40.81,-53.02,0.70,-0.24,1.09
532,4.23,43.22,-56.76,0.71,-0.23,1.09
533,4.89,43.13,-62.72,0.70,-0.24,1.07
534,8.27,40.63,-67.22,0.69,-0.25,1.06
535,8.08,42.23,-71.66,0.72,-0.24,1.07
536,9.68,42.17,-75.39,0.70,-0.25,1.09
537,10.09,43.94,-79.88,0.70,-0.24,1.09
538,11.39,45.40,-83.53,0.68,-0.25,1.10
539,11.53,46.32,-87.68,0.68,-0.26,1.09
540,13.76,48.60,-90.93,0.68,-0.28,1.08
541,13.08,51.77,-94.73,0.67,-0.28,1.07
542,11.88,52.08,-97.50,0.65,-0.28,1.08
543,9.16,53.25,-100.37,0.63,-0.28,1.07
544,7.92,56.29,-102.75,0.64,-0.27,1.05
545,6.99,58.55,-105.59,0.62,-0.29,1.06
546,7.73,56.81,-107.51,0.62,-0.30,1.06
547,6.53,55.76,-113.18,0.61,-0.29,1.05
548,7.47,60.43,-111.79,0.62,-0.29,1.03
549,5.15,63.04,-118.44,0.57,-0.31,1.03
550,1.50,59.91,-125.53,0.53,-0.30,1.06
551,3.30,58.47,-131.65,0.51,-0.31,1.04
552,4.37,58.34,-134.87,0.50,-0.31,1.04
553,7.31,60.37,-136.03,0.50,-0.31,1.03
554,8.26,57.89,-139.18,0.46,-0.32,1.00
555,8.17,55.83,-142.64,0.45,-0.30,0.98
556,4.58,53.45,-145.56,0.44,-0.30,0.95
557,4.55,51.80,-149.39,0.44,-0.30,0.91
558,4.53,48.81,-152.75,0.43,-0.30,0.90
559,5.77,47.65,-155.62,0.41,-0.29,0.88
560,5.27,44.78,-158.21,0.37,-0.28,0.88
561,5.05,33.77,-160.96,0.33,-0.28,0.87
562,5.15,24.67,-164.66,0.31,-0.27,0.87
563,5.40,16.15,-168.23,0.29,-0.27,0.83
564,3.97,7.66,-170.66,0.28,-0.26,0.83
565,1.44,-0.20,-173.42,0.26,-0.27,0.84
566,-1.51,-6.37,-175.31,0.24,-0.27,0.88
567,-0.64,-8.63,-176.55,0.21,-0.28,0.93
568,-1.21,-8.72,-176.20,0.21,-0.28,0.95
569,-3.97,-5.95,-175.85,0.21,-0.29,0.92
570,-9.30,-3.15,-176.23,0.19,-0.28,0.92
571,-16.15,-1.88,-177.27,0.15,-0.28,0.94
572,-23.48,-1.33,-178.72,0.12,-0.29,0.97
573,-27.91,2.89,-177.51,0.09,-0.30,1.01
574,-28.52,6.95,-175.59,0.06,-0.30,1.04
575,-28.41,13.04,-173.19,0.07,-0.31,1.07
576,-26.84,16.11,-172.35,0.09,-0.32,1.11
577,-24.79,17.80,-172.56,0.09,-0.31,1.10
578,-21.95,21.42,-172.11,0.08,-0.30,1.09
579,-19.22,23.66,-170.08,0.05,-0.29,1.08
580,-16.02,21.98,-170.89,0.02,-0.29,1.06
581,-13.37,17.04,-171.28,-0.02,-0.27,1.04
582,-11.24,11.37,-171.65,-0.05,-0.27,1.02
583,-9.42,5.01,-171.24,-0.08,-0.26,1.00
584,-10.00,-0.17,-170.64,-0.10,-0.24,0.98
585,-11.82,-7.39,-170.56,-0.13,-0.23,0.95
586,-13.79,-12.12,-169.68,-0.15,-0.22,0.93
587,-14.21,-16.78,-168.24,-0.17,-0.22,0.91
588,-14.20,-18.18,-166.85,-0.14,-0.23,0.89
589,-15.88,-14.67,-164.93,-0.12,-0.24,0.86
590,-22.26,-10.76,-164.37,-0.10,-0.23,0.86
591,-29.95,-5.95,-162.26,-0.07,-0.24,0.83
592,38.98,-17.77,-187.54,-0.44,-0.88,-0.26
593,-44.15,-11.08,-167.13,-0.01,-0.50,1.05
594,-15.39,-24.66,-166.52,0.01,-0.35,1.07
595,-8.67,-7.68,-170.79,-0.15,-0.34,0.76
596,10.99,-14.34,-163.91,-0.29,-0.37,0.80
597,10.67,-20.03,-148.20,-0.30,-0.47,0.76
598,0.99,48.18,-128.34,-0.04,-0.38,0.86
599,3.82,78.64,-118.61,-0.24,-0.31,0.92
600,-32.73,47.85,-124.60,-0.31,-0.31,1.11
601,-38.03,-11.71,-134.90,-0.37,-0.36,1.12
602,-31.33,-57.68,-138.40,-0.24,-0.38,1.08
603,-40.95,-65.31,-137.11,-0.20,-0.34,1.03
604,-52.58,-46.27,-131.57,-0.18,-0.34,1.02
605,-51.34,-24.35,-124.79,-0.14,-0.37,1.04
606,-43.71,4.72,-114.24,-0.13,-0.40,1.02
607,-38.78,24.60,-108.34,-0.17,-0.39,1.08
608,-33.71,20.32,-106.75,-0.20,-0.41,1.12
609,-33.91,10.69,-105.89,-0.20,-0.39,1.09
610,-33.21,-4.61,-105.21,-0.23,-0.42,1.02
611,-33.68,-19.79,-102.24,-0.24,-0.43,0.98
612,-36.69,-21.66,-97.59,-0.18,-0.41,0.91
613,-40.08,-16.44,-92.02,-0.18,-0.41,0.92
614,-42.41,-13.39,-83.71,-0.20,-0.39,0.95
615,-39.19,-22.31,-81.02,-0.19,-0.41,1.02
616,-38.09,-28.90,-78.24,-0.15,-0.38,1.00
617,-36.52,-37.13,-76.24,-0.13,-0.39,0.97
618,-45.47,-35.53,-76.73,-0.07,-0.38,0.98
619,-48.03,-27.77,-73.44,-0.04,-0.39,0.96
620,-44.11,-10.06,-67.82,-0.05,-0.39,0.96
621,-40.90,0.00,-65.30,-0.04,-0.41,1.08
622,-38.20,8.61,-59.05,-0.07,-0.40,1.08
623,-37.59,18.53,-51.53,-0.11,-0.36,1.05
624,-40.87,16.69,-48.03,-0.13,-0.35,1.07
625,-46.73,8.70,-46.96,-0.11,-0.34,1.08
626,-44.12,14.03,-40.67,-0.04,-0.37,1.00
627,-54.76,29.98,-36.35,-0.00,-0.36,1.01
628,-61.33,41.82,-35.88,-0.06,-0.35,1.03
629,-52.08,43.07,-32.20,-0.09,-0.38,1.05
630,-90.92,23.51,-39.74,-0.16,-0.34,1.06
631,-109.95,23.33,-42.31,-0.03,-0.37,1.02
632,-108.43,9.69,-37.66,0.04,-0.37,0.94
633,-157.34,-20.49,-71.66,-0.26,-0.18,1.30
634,-134.26,-6.03,-51.51,0.13,-0.39,0.97
635,-157.73,-0.84,-57.04,0.15,-0.35,1.07
636,-161.37,-4.70,-58.85,0.11,-0.43,1.06
637,-162.73,-27.33,-53.59,0.08,-0.39,1.07
638,-155.89,-42.41,-56.05,0.02,-0.44,1.08
639,-128.99,-42.46,-49.24,0.16,-0.48,1.00
640,-115.63,-47.16,-47.18,0.18,-0.44,1.04
641,-96.75,-42.61,-39.94,0.20,-0.43,1.04
642,-100.75,-39.91,-40.63,0.20,-0.43,1.10
643,-91.02,-29.80,-36.31,0.23,-0.43,1.07
644,-67.33,-19.33,-28.26,0.24,-0.45,0.98
645,-61.22,-17.42,-23.59,0.28,-0.41,0.99
646,-67.44,-23.92,-29.04,0.27,-0.38,0.99
647,-57.62,-18.31,-26.70,0.33,-0.40,0.95
648,-48.14,-20.32,-27.62,0.36,-0.41,0.91
649,-37.50,-20.12,-29.22,0.37,-0.41,0.91
650,-25.25,-15.13,-27.65,0.41,-0.40,0.91
651,-15.51,-9.13,-27.86,0.43,-0.41,0.91
652,-6.75,-4.56,-28.96,0.43,-0.42,0.90
653,0.12,-0.58,-29.01,0.40,-0.43,0.91
654,4.38,1.15,-29.37,0.34,-0.43,0.93
655,7.30,2.34,-28.81,0.31,-0.45,0.92
656,8.93,2.67,-27.89,0.26,-0.45,0.92
657,11.40,3.18,-25.27,0.24,-0.46,0.94
658,12.60,6.58,-21.25,0.24,-0.45,0.94
659,15.40,7.86,-18.23,0.22,-0.46,0.94
660,15.79,10.66,-13.60,0.20,-0.44,0.96
661,15.13,11.79,-10.18,0.22,-0.42,0.95
662,16.09,15.28,-6.78,0.26,-0.41,0.95
663,18.15,19.25,-3.53,0.30,-0.41,0.93
664,21.79,24.14,-0.64,0.32,-0.40,0.93
665,23.83,25.63,-0.21,0.32,-0.39,0.92
666,26.90,23.86,-0.89,0.31,-0.40,0.92
667,31.48,24.27,0.58,0.31,-0.40,0.90
668,29.77,20.52,0.78,0.30,-0.37,0.96
669,39.05,19.71,0.06,0.29,-0.43,0.88
670,36.06,14.70,-0.98,0.26,-0.37,0.93
671,37.16,21.18,0.29,0.30,-0.37,0.97
672,42.64,24.49,2.66,0.30,-0.39,0.90
673,36.85,20.75,-3.44,0.25,-0.36,0.98
674,43.74,21.39,0.37,0.30,-0.39,0.92
675,45.02,29.40,3.66,0.25,-0.36,0.99
676,58.95,40.41,15.74,0.26,-0.39,0.94
677,48.89,33.83,10.17,0.20,-0.35,1.00
678,62.95,30.96,19.25,0.24,-0.39,0.90
679,35.05,26.34,4.09,0.10,-0.27,1.08
680,40.66,32.67,14.06,0.23,-0.34,0.95
681,50.67,40.14,20.09,0.23,-0.35,0.95
682,37.63,37.76,14.14,0.16,-0.30,1.03
683,53.82,43.51,27.88,0.24,-0.35,0.93
684,39.24,37.83,16.41,0.12,-0.29,1.03
685,48.15,39.76,25.07,0.21,-0.33,0.95
686,53.07,39.65,21.59,0.18,-0.35,0.96
687,50.35,32.73,20.44,0.17,-0.37,0.96
688,36.44,31.40,11.22,0.07,-0.28,1.07
689,58.73,48.02,30.35,0.20,-0.35,0.94
690,39.13,42.41,16.14,0.05,-0.30,1.08
691,37.36,37.97,19.76,0.13,-0.33,1.02
692,29.10,31.45,11.89,0.07,-0.32,1.05
693,26.72,30.52,13.66,0.09,-0.32,1.02
694,22.47,30.90,14.52,0.08,-0.31,1.01
695,18.21,31.25,15.80,0.09,-0.25,1.09
696,17.50,31.28,13.33,0.07,-0.27,1.00
697,13.04,28.00,15.79,0.10,-0.29,1.01
698,11.40,23.11,9.53,0.08,-0.30,1.00
699,8.73,23.98,11.74,0.10,-0.29,0.98
700,5.80,24.26,11.79,0.09,-0.29,1.00
701,4.44,24.06,13.28,0.10,-0.28,1.02
702,1.16,21.27,11.34,0.09,-0.28,1.02
703,-2.81,15.73,8.66,0.09,-0.28,1.02
704,-3.88,10.43,5.19,0.09,-0.29,0.99
705,-8.37,7.15,5.65,0.11,-0.26,1.03
706,-6.41,7.16,3.97,0.09,-0.29,0.99
707,-9.34,7.66,6.23,0.09,-0.28,0.97
708,-9.86,4.64,4.73,0.07,-0.27,0.98
709,-12.81,2.61,2.76,0.09,-0.25,0.97
710,-14.11,2.46,1.22,0.11,-0.27,0.97
711,-15.80,5.04,1.11,0.13,-0.27,0.98
712,-12.40,1.40,2.23,0.12,-0.28,0.98
713,-13.16,-2.58,0.26,0.12,-0.29,1.00
714,-13.42,-7.21,-2.53,0.10,-0.29,0.99
715,-13.79,-10.03,-3.16,0.10,-0.29,0.99
716,-12.98,-13.62,-5.16,0.09,-0.30,1.00
717,-13.02,-13.73,-4.64,0.11,-0.29,1.00
718,-13.07,-12.41,-3.50,0.12,-0.28,1.01
719,-11.63,-9.92,-3.30,0.15,-0.30,1.02
720,-10.89,-9.80,-4.72,0.15,-0.29,1.03
721,-10.75,-10.78,-6.08,0.15,-0.29,1.01
722,-9.59,-12.98,-6.81,0.13,-0.29,1.00
723,-8.52,-13.53,-6.76,0.13,-0.30,1.00
724,-11.01,-16.06,-7.10,0.13,-0.30,1.04
725,-8.43,-22.17,-11.97,0.09,-0.33,1.01
726,-13.53,-24.09,-11.22,0.12,-0.29,1.03
