,gyro_x,gyro_y,gyro_z,acce_x,acce_y,acce_z
0,5.36,2.49,-9.39,-0.17,-0.09,1.03
1,4.89,4.34,-9.28,-0.17,-0.09,1.04
2,4.75,5.97,-8.89,-0.17,-0.09,1.05
3,4.50,6.73,-8.60,-0.18,-0.08,1.05
4,4.90,7.77,-8.41,-0.17,-0.10,1.04
5,5.39,7.65,-9.53,-0.17,-0.10,1.07
6,5.71,8.53,-9.94,-0.18,-0.10,1.06
7,6.55,8.46,-10.02,-0.19,-0.09,1.06
8,7.39,8.15,-10.41,-0.19,-0.08,1.05
9,8.02,7.30,-10.69,-0.20,-0.08,1.05
10,8.44,7.07,-10.84,-0.20,-0.08,1.04
11,8.60,6.37,-11.80,-0.21,-0.08,1.03
12,8.75,5.94,-11.54,-0.22,-0.07,1.03
13,9.31,4.92,-11.10,-0.23,-0.06,1.02
14,13.57,-0.37,-11.88,-0.30,-0.10,1.07
15,9.47,8.18,-9.91,-0.21,-0.06,1.00
16,7.40,3.30,-12.99,-0.24,-0.07,1.00
17,6.23,4.00,-11.57,-0.22,-0.06,1.02
18,5.92,4.23,-11.59,-0.23,-0.05,1.01
19,5.74,4.40,-11.13,-0.23,-0.05,1.01
20,5.73,4.53,-10.73,-0.24,-0.06,1.02
21,5.59,4.64,-10.81,-0.24,-0.07,1.02
22,5.85,3.74,-10.17,-0.26,-0.07,1.01
23,5.56,2.93,-9.11,-0.26,-0.07,1.02
24,5.63,2.55,-8.60,-0.25,-0.06,1.01
25,5.94,2.55,-7.47,-0.22,-0.08,1.02
26,6.32,1.82,-8.29,-0.23,-0.07,1.03
27,6.35,2.31,-7.79,-0.21,-0.07,1.03
28,6.70,2.82,-7.30,-0.21,-0.08,1.03
29,6.98,2.95,-7.08,-0.21,-0.08,1.04
30,7.56,3.36,-6.95,-0.21,-0.09,1.04
31,7.60,4.27,-6.95,-0.19,-0.08,1.04
32,7.39,4.00,-7.27,-0.18,-0.07,1.04
33,7.97,3.51,-7.98,-0.18,-0.08,1.04
34,7.54,3.11,-8.58,-0.17,-0.07,1.02
35,7.04,3.10,-9.33,-0.17,-0.07,1.01
36,6.17,2.90,-9.97,-0.16,-0.07,1.02
37,5.66,2.40,-11.18,-0.16,-0.07,1.03
38,5.42,1.85,-11.92,-0.16,-0.06,1.04
39,5.53,2.41,-12.41,-0.15,-0.07,1.04
40,5.34,2.90,-13.39,-0.15,-0.06,1.05
41,5.13,3.54,-14.44,-0.15,-0.06,1.06
42,5.18,3.98,-15.18,-0.15,-0.07,1.06
43,5.73,3.39,-15.71,-0.16,-0.07,1.06
44,5.79,2.47,-16.00,-0.18,-0.08,1.07
45,6.52,1.73,-16.46,-0.18,-0.08,1.07
46,7.13,1.33,-17.11,-0.18,-0.08,1.07
47,8.18,-0.43,-17.69,-0.18,-0.09,1.07
48,6.47,-6.89,-19.34,-0.18,-0.08,1.08
49,8.15,-1.22,-15.98,-0.16,-0.01,1.11
50,8.98,-1.63,-20.78,-0.18,-0.08,1.08
51,9.62,-0.05,-20.43,-0.16,-0.07,1.07
52,8.05,0.56,-21.76,-0.17,-0.06,1.06
53,6.99,3.37,-23.36,-0.16,-0.11,1.16
54,7.50,1.34,-23.15,-0.21,-0.07,1.06
55,7.71,1.28,-22.67,-0.20,-0.07,1.07
56,7.89,0.63,-22.58,-0.22,-0.07,1.07
57,7.36,0.09,-22.34,-0.22,-0.07,1.06
58,7.74,-0.44,-22.50,-0.23,-0.08,1.08
59,8.67,-0.55,-22.27,-0.24,-0.08,1.08
60,9.63,-0.50,-21.97,-0.24,-0.09,1.07
61,10.32,0.49,-21.54,-0.23,-0.08,1.07
62,11.08,0.92,-21.04,-0.24,-0.09,1.07
63,11.60,1.80,-20.76,-0.24,-0.08,1.06
64,11.51,1.85,-20.14,-0.25,-0.07,1.06
65,11.39,0.87,-20.08,-0.26,-0.07,1.05
66,11.13,-0.66,-20.12,-0.26,-0.06,1.04
67,10.99,-1.86,-20.03,-0.26,-0.06,1.05
68,10.73,-3.80,-19.92,-0.26,-0.06,1.04
69,10.58,-5.48,-19.56,-0.25,-0.06,1.05
70,10.85,-7.28,-19.37,-0.25,-0.06,1.05
71,10.81,-7.91,-19.59,-0.23,-0.07,1.06
72,11.25,-8.40,-19.68,-0.22,-0.07,1.07
73,11.95,-9.39,-19.34,-0.23,-0.06,1.07
74,12.49,-10.43,-19.34,-0.22,-0.07,1.06
75,12.96,-10.08,-19.45,-0.20,-0.07,1.07
76,13.28,-9.69,-19.65,-0.19,-0.07,1.08
77,13.91,-8.92,-20.05,-0.18,-0.07,1.07
78,14.02,-7.45,-20.52,-0.17,-0.06,1.08
79,14.23,-5.51,-21.18,-0.16,-0.07,1.07
80,15.21,-3.83,-21.71,-0.15,-0.06,1.07
81,17.31,-3.39,-22.35,-0.14,-0.07,1.07
82,16.32,-1.05,-23.45,-0.15,-0.05,1.06
83,16.31,0.26,-24.49,-0.16,-0.05,1.06
84,17.15,1.77,-24.41,-0.16,-0.05,1.04
85,16.46,0.84,-26.18,-0.18,-0.06,1.04
86,16.46,-1.04,-27.13,-0.19,-0.05,1.04
87,16.37,-2.31,-27.01,-0.20,-0.05,1.04
88,15.80,-2.75,-26.78,-0.20,-0.04,1.04
89,15.47,-3.47,-26.85,-0.19,-0.04,1.04
90,15.21,-3.80,-26.58,-0.19,-0.04,1.05
91,15.04,-3.83,-26.29,-0.19,-0.04,1.04
92,14.93,-3.98,-26.34,-0.19,-0.04,1.05
93,15.01,-4.61,-26.20,-0.19,-0.04,1.06
94,15.07,-4.53,-26.14,-0.19,-0.05,1.05
95,15.25,-4.61,-26.14,-0.18,-0.05,1.06
96,15.21,-4.50,-26.55,-0.18,-0.04,1.05
97,15.56,-5.62,-26.95,-0.17,-0.04,1.06
98,18.69,-4.78,-26.08,-0.18,-0.06,1.04
99,16.63,-1.13,-25.74,-0.12,-0.05,1.00
100,16.63,-5.51,-27.16,-0.15,-0.05,1.06
101,16.34,-5.54,-27.80,-0.15,-0.05,1.07
102,16.35,-5.21,-27.98,-0.16,-0.05,1.07
103,16.60,-4.03,-28.06,-0.16,-0.05,1.07
104,17.08,-2.85,-28.41,-0.16,-0.05,1.07
105,18.81,2.43,-31.82,-0.15,-0.10,1.06
106,18.66,-0.78,-29.13,-0.15,-0.05,1.04
107,18.64,-0.58,-29.77,-0.13,-0.03,1.06
108,18.46,-0.06,-30.58,-0.14,-0.04,1.05
109,18.23,1.25,-30.72,-0.15,-0.03,1.05
110,17.94,1.88,-31.02,-0.15,-0.03,1.03
111,18.15,2.55,-31.18,-0.15,-0.04,1.04
112,18.02,3.51,-31.89,-0.16,-0.04,1.04
113,18.23,4.05,-32.21,-0.16,-0.03,1.04
114,18.32,4.56,-32.15,-0.17,-0.03,1.03
115,18.11,4.96,-32.47,-0.18,-0.03,1.02
116,18.38,4.70,-32.53,-0.18,-0.03,1.02
117,18.31,4.15,-32.52,-0.20,-0.02,1.02
118,18.20,1.92,-32.50,-0.21,-0.02,1.01
119,18.32,-0.23,-32.38,-0.21,-0.02,1.02
120,17.56,-0.76,-32.67,-0.19,-0.02,1.01
121,17.13,-2.20,-32.60,-0.20,-0.02,1.01
122,16.85,-2.90,-32.76,-0.19,-0.02,1.01
123,15.89,-2.69,-33.28,-0.18,-0.01,1.00
124,15.18,-1.45,-33.65,-0.17,-0.01,1.00
125,14.64,-0.20,-34.26,-0.17,-0.01,1.01
126,14.72,1.34,-34.27,-0.18,-0.01,1.03
127,14.55,3.73,-34.72,-0.18,-0.02,1.02
128,14.63,5.54,-34.29,-0.20,-0.00,1.07
129,15.80,5.82,-35.36,-0.22,-0.03,1.04
130,15.51,7.11,-34.72,-0.22,-0.02,1.03
131,15.47,8.05,-34.31,-0.22,-0.02,1.02
132,15.34,9.19,-34.26,-0.22,-0.02,1.01
133,15.15,9.65,-33.45,-0.24,-0.02,1.02
134,15.11,10.46,-32.81,-0.25,-0.01,1.00
135,14.92,9.91,-32.06,-0.26,-0.01,1.00
136,14.92,8.81,-31.51,-0.27,-0.01,1.00
137,15.02,6.61,-31.21,-0.27,-0.01,0.99
138,14.92,4.81,-30.76,-0.26,-0.00,0.99
139,14.61,2.69,-30.29,-0.27,0.00,0.99
140,14.02,2.26,-30.21,-0.26,0.01,0.98
141,13.45,2.18,-30.08,-0.25,0.01,0.99
142,13.05,1.88,-29.79,-0.25,0.01,0.99
143,12.58,0.55,-29.73,-0.26,0.00,0.99
144,12.17,-0.72,-28.89,-0.26,0.00,1.00
145,11.77,-2.20,-28.41,-0.25,0.01,1.00
146,11.56,-3.85,-28.26,-0.24,0.01,1.01
147,11.68,-4.17,-28.69,-0.22,0.00,1.01
148,11.56,-3.22,-29.04,-0.21,0.01,1.00
149,11.54,-2.63,-29.71,-0.20,0.01,1.00
150,11.25,-1.18,-29.85,-0.21,0.02,1.00
151,10.82,-0.05,-30.49,-0.22,0.01,1.00
152,10.08,0.84,-30.90,-0.22,0.02,1.00
153,9.45,0.67,-30.95,-0.24,0.02,1.00
154,8.93,1.30,-30.64,-0.24,0.02,1.01
155,8.43,1.69,-30.05,-0.24,0.02,1.01
156,8.23,2.00,-29.63,-0.25,0.02,1.02
157,8.46,1.50,-29.44,-0.26,0.06,0.94
158,9.08,1.48,-28.98,-0.25,-0.00,1.02
159,9.51,0.40,-29.16,-0.26,0.01,1.03
160,9.66,0.34,-29.15,-0.25,0.01,1.03
161,9.54,1.45,-28.95,-0.25,0.01,1.03
162,9.60,0.50,-28.29,-0.26,0.01,1.03
163,9.19,0.76,-28.29,-0.26,0.01,1.01
164,8.92,0.58,-28.05,-0.26,0.01,1.03
165,8.50,0.41,-27.73,-0.26,0.01,1.02
166,8.52,-0.90,-27.62,-0.26,0.01,1.03
167,8.52,-1.65,-26.79,-0.27,0.00,1.03
168,8.38,-1.44,-26.98,-0.25,0.01,1.03
169,8.47,-1.08,-26.37,-0.24,0.02,1.04
170,8.41,-0.49,-26.26,-0.24,0.01,1.04
171,8.66,0.08,-26.12,-0.25,0.01,1.05
172,8.76,0.53,-25.85,-0.23,0.01,1.05
173,9.30,1.16,-25.68,-0.23,0.01,1.05
174,9.56,1.98,-25.80,-0.23,0.01,1.05
175,9.80,2.38,-26.06,-0.23,0.01,1.03
176,10.05,2.27,-25.68,-0.23,0.01,1.03
177,10.06,2.82,-25.56,-0.23,0.01,1.03
178,9.89,3.18,-25.88,-0.23,0.01,1.04
179,10.03,2.98,-25.94,-0.23,0.01,1.02
180,10.09,2.50,-25.88,-0.24,0.02,1.03
181,10.00,2.89,-26.08,-0.23,0.01,1.02
182,9.89,3.57,-26.08,-0.24,0.02,1.03
183,9.82,3.19,-25.85,-0.25,0.01,1.03
184,9.83,2.79,-25.82,-0.25,0.02,1.03
185,9.69,3.51,-25.33,-0.25,0.02,1.02
186,9.45,4.03,-24.87,-0.25,0.01,1.03
187,9.25,4.44,-24.49,-0.24,0.02,1.03
188,9.25,4.81,-24.52,-0.24,0.03,1.04
189,8.99,5.16,-24.50,-0.24,0.02,1.03
190,8.92,5.45,-24.61,-0.23,0.02,1.04
191,9.13,5.44,-24.63,-0.23,0.02,1.04
192,9.86,5.28,-24.75,-0.23,0.01,1.05
193,10.29,4.90,-25.27,-0.22,0.01,1.05
194,10.58,5.42,-25.77,-0.22,0.02,1.04
195,10.82,5.74,-26.24,-0.23,0.02,1.03
196,11.16,5.33,-26.72,-0.23,0.02,1.04
197,11.36,4.06,-26.64,-0.25,0.02,1.02
198,11.10,3.66,-26.46,-0.24,0.02,1.03
199,11.19,3.68,-26.46,-0.24,0.02,1.03
200,11.31,3.02,-26.26,-0.24,0.03,1.03
201,11.68,2.34,-25.42,-0.24,0.03,1.03
202,11.50,1.65,-25.18,-0.24,0.02,1.04
203,11.31,1.63,-25.77,-0.23,0.02,1.05
204,11.44,2.60,-25.59,-0.21,0.02,1.05
205,11.85,3.89,-25.74,-0.21,0.01,1.06
206,12.50,6.34,-26.26,-0.19,0.01,1.06
207,13.11,8.49,-26.82,-0.19,0.01,1.05
208,13.54,9.68,-27.56,-0.21,0.02,1.04
209,13.83,10.34,-27.95,-0.20,0.02,1.03
210,13.91,9.56,-28.61,-0.22,0.02,1.01
211,13.89,8.06,-29.13,-0.23,0.03,1.01
212,14.08,6.52,-29.34,-0.24,0.02,1.02
213,14.32,5.74,-29.31,-0.23,0.02,1.01
214,13.98,5.88,-29.45,-0.22,0.03,1.01
215,13.69,6.37,-29.66,-0.22,0.03,1.01
216,13.50,6.85,-30.15,-0.21,0.02,1.02
217,13.24,7.16,-30.63,-0.22,0.03,1.02
218,13.60,7.60,-31.50,-0.22,0.02,1.03
219,13.51,8.66,-31.65,-0.21,0.03,1.04
220,13.86,9.40,-32.05,-0.22,0.02,1.03
221,14.15,10.34,-32.50,-0.22,0.01,1.03
222,14.46,11.63,-32.84,-0.22,0.02,1.03
223,14.46,13.33,-33.60,-0.23,0.03,1.02
224,14.47,14.72,-33.86,-0.24,0.02,1.01
225,14.37,14.79,-34.02,-0.25,0.03,1.00
226,14.43,14.61,-33.95,-0.26,0.02,1.00
227,14.24,13.97,-33.98,-0.27,0.02,1.01
228,14.29,13.47,-33.60,-0.27,0.03,1.01
229,14.17,12.20,-33.66,-0.28,0.03,1.01
230,14.14,11.44,-33.82,-0.27,0.03,1.01
231,13.89,11.76,-33.42,-0.26,0.03,1.01
232,12.58,14.92,-35.30,-0.23,0.06,1.01
233,14.60,14.53,-33.95,-0.27,0.01,1.04
234,14.89,15.71,-33.56,-0.27,0.02,1.02
235,15.47,16.75,-33.25,-0.27,0.02,1.03
236,15.83,17.45,-33.18,-0.27,0.02,1.03
237,16.50,18.09,-33.50,-0.29,0.02,1.03
238,16.64,17.05,-33.25,-0.31,0.03,1.02
239,16.96,15.30,-32.82,-0.32,0.03,1.01
240,16.95,14.53,-32.49,-0.32,0.03,1.01
241,16.67,14.23,-31.51,-0.32,0.04,1.00
242,16.38,13.36,-30.53,-0.33,0.04,1.01
243,16.24,12.49,-29.18,-0.32,0.03,1.02
244,16.43,12.55,-28.92,-0.30,0.03,1.02
245,16.60,13.40,-28.73,-0.30,0.03,1.03
246,16.64,13.51,-28.69,-0.30,0.03,1.02
247,17.13,13.37,-28.46,-0.30,0.03,1.03
248,17.74,12.47,-28.60,-0.31,0.02,1.02
249,18.69,10.58,-28.64,-0.32,0.02,1.03
250,19.47,9.04,-28.55,-0.32,0.03,1.03
251,20.12,8.46,-28.29,-0.32,0.03,1.02
252,20.76,8.24,-28.40,-0.31,0.02,1.01
253,20.93,8.76,-28.46,-0.31,0.03,1.01
254,21.13,9.34,-28.37,-0.30,0.04,1.00
255,21.07,9.57,-28.24,-0.31,0.05,1.00
256,20.90,9.82,-27.85,-0.30,0.04,1.00
257,20.24,10.41,-27.69,-0.30,0.06,1.00
258,19.86,9.91,-27.44,-0.30,0.05,0.99
259,19.21,9.95,-27.21,-0.30,0.06,0.99
260,19.28,10.49,-26.99,-0.30,0.04,1.00
261,19.44,10.52,-27.27,-0.29,0.05,1.00
262,19.57,11.04,-27.56,-0.28,0.04,1.00
263,20.02,11.44,-27.63,-0.29,0.05,0.99
264,20.50,11.89,-28.63,-0.29,0.05,0.99
265,20.60,11.31,-29.56,-0.30,0.06,0.97
266,21.21,9.15,-30.40,-0.32,0.06,0.97
267,20.47,7.28,-31.08,-0.33,0.07,0.96
268,19.50,4.82,-31.33,-0.35,0.07,0.96
269,18.38,2.37,-31.04,-0.34,0.07,0.96
270,17.42,1.36,-30.95,-0.34,0.07,0.97
271,16.55,0.85,-30.53,-0.33,0.07,0.98
272,16.40,1.24,-30.34,-0.32,0.06,0.99
273,16.53,3.54,-29.89,-0.31,0.05,1.02
274,16.92,6.24,-29.59,-0.31,0.05,1.02
275,17.59,8.67,-29.39,-0.30,0.04,1.03
276,18.34,10.64,-30.03,-0.31,0.05,1.03
277,18.98,12.09,-30.60,-0.32,0.05,1.03
278,19.56,12.78,-30.89,-0.33,0.05,1.01
279,20.44,11.95,-30.85,-0.35,0.05,1.02
280,21.13,11.31,-31.34,-0.36,0.06,1.02
281,21.56,10.44,-32.08,-0.36,0.06,1.01
282,22.23,9.04,-32.47,-0.37,0.06,1.00
283,22.98,7.59,-32.12,-0.38,0.07,0.99
284,23.02,6.14,-31.60,-0.38,0.06,0.99
285,22.78,5.60,-31.30,-0.38,0.07,0.99
286,22.44,6.58,-30.96,-0.37,0.07,0.98
287,21.95,7.21,-30.63,-0.37,0.08,0.97
288,20.95,7.79,-30.32,-0.38,0.09,0.99
289,20.61,7.77,-30.47,-0.38,0.08,0.97
290,20.20,8.46,-30.38,-0.37,0.10,0.97
291,19.91,8.47,-30.38,-0.38,0.08,0.98
292,19.86,7.34,-30.76,-0.39,0.08,0.98
293,19.82,6.90,-30.81,-0.39,0.07,0.99
294,20.34,7.40,-30.82,-0.39,0.07,0.99
295,20.46,6.93,-31.04,-0.40,0.08,0.98
296,20.38,5.77,-30.60,-0.41,0.08,0.97
297,20.00,4.96,-29.88,-0.41,0.08,0.98
298,19.83,3.98,-29.33,-0.41,0.08,0.98
299,19.76,2.35,-29.37,-0.41,0.09,0.98
300,20.03,0.64,-29.44,-0.41,0.08,0.99
301,20.40,0.24,-29.22,-0.40,0.08,0.99
302,20.81,0.96,-28.66,-0.39,0.08,1.00
303,21.62,2.27,-28.60,-0.38,0.08,1.00
304,22.14,3.01,-29.27,-0.38,0.08,1.00
305,22.41,2.29,-29.79,-0.39,0.08,0.99
306,22.44,1.92,-30.06,-0.38,0.09,0.99
307,22.27,1.25,-30.15,-0.39,0.09,0.98
308,22.24,0.78,-29.92,-0.40,0.09,1.00
309,22.02,0.66,-29.60,-0.41,0.09,0.99
310,21.91,0.27,-28.87,-0.41,0.09,0.99
311,22.40,-0.53,-29.36,-0.42,0.09,1.00
312,22.76,-4.18,-28.05,-0.48,0.11,1.04
313,23.18,-1.92,-28.12,-0.40,0.09,0.99
314,23.34,-1.82,-28.32,-0.39,0.09,0.99
315,23.57,-1.97,-27.98,-0.38,0.09,0.98
316,23.30,-2.02,-27.16,-0.38,0.11,0.99
317,22.90,-1.95,-26.63,-0.37,0.11,0.99
318,22.55,-0.84,-27.31,-0.36,0.10,0.99
319,22.32,-0.53,-27.89,-0.34,0.10,1.00
320,22.09,0.32,-28.61,-0.33,0.11,1.00
321,21.89,2.44,-28.75,-0.33,0.11,0.99
322,21.77,4.32,-29.28,-0.34,0.10,1.00
323,21.97,6.00,-29.69,-0.34,0.10,1.01
324,22.46,7.30,-29.65,-0.35,0.10,1.01
325,22.89,7.91,-29.62,-0.36,0.10,1.00
326,23.11,7.94,-29.71,-0.37,0.11,0.99
327,23.48,6.58,-29.76,-0.37,0.11,0.99
328,23.33,4.79,-29.40,-0.38,0.11,0.99
329,23.27,3.47,-29.19,-0.37,0.11,0.98
330,22.93,3.05,-28.96,-0.36,0.11,1.00
331,23.05,3.31,-28.82,-0.34,0.11,0.99
332,23.25,3.82,-28.95,-0.33,0.11,0.99
333,23.86,4.44,-29.47,-0.32,0.11,1.00
334,24.41,3.92,-30.27,-0.33,0.12,0.97
335,24.56,4.11,-31.76,-0.33,0.12,0.97
336,24.82,3.95,-32.64,-0.33,0.12,0.98
337,24.84,3.98,-33.19,-0.34,0.12,0.97
338,25.19,4.56,-32.99,-0.34,0.12,0.98
339,25.13,2.76,-33.85,-0.35,0.11,0.96
340,24.52,4.41,-34.37,-0.33,0.13,0.97
341,24.15,5.19,-35.11,-0.33,0.13,0.96
342,23.80,5.05,-35.45,-0.33,0.13,0.95
343,23.53,5.48,-35.57,-0.34,0.13,0.94
344,23.02,4.89,-36.00,-0.33,0.12,0.96
345,23.16,4.53,-36.47,-0.34,0.12,0.95
346,23.07,5.11,-37.22,-0.35,0.13,0.95
347,22.96,4.95,-37.71,-0.35,0.13,0.94
348,23.02,4.55,-37.97,-0.35,0.13,0.94
349,23.33,4.00,-38.85,-0.35,0.12,0.94
350,23.21,3.59,-39.57,-0.37,0.12,0.93
351,23.59,2.75,-39.97,-0.37,0.13,0.92
352,22.82,1.65,-39.77,-0.38,0.13,0.92
353,21.79,1.65,-39.24,-0.38,0.13,0.92
354,20.81,1.39,-38.92,-0.39,0.13,0.92
355,20.76,0.49,-38.52,-0.39,0.11,0.92
356,20.26,0.32,-37.89,-0.39,0.12,0.93
357,19.45,0.56,-38.00,-0.38,0.13,0.92
358,18.92,0.11,-38.37,-0.37,0.12,0.94
359,18.92,1.01,-39.33,-0.36,0.12,0.93
360,19.80,0.32,-39.91,-0.37,0.11,0.94
361,20.31,0.11,-40.95,-0.37,0.11,0.94
362,20.76,-0.55,-42.26,-0.38,0.11,0.95
363,20.09,1.02,-43.88,-0.37,0.12,0.92
364,19.86,0.87,-42.78,-0.37,0.12,0.93
365,19.97,1.13,-42.43,-0.38,0.12,0.92
366,19.37,2.27,-41.86,-0.39,0.13,0.91
367,19.01,2.53,-41.10,-0.38,0.13,0.92
368,18.21,3.88,-41.04,-0.37,0.13,0.92
369,18.26,2.95,-40.49,-0.37,0.12,0.93
370,16.82,3.80,-42.81,-0.36,0.12,0.93
371,17.22,4.58,-42.81,-0.37,0.12,0.93
372,17.74,3.50,-43.34,-0.38,0.11,0.92
373,17.83,3.24,-43.66,-0.39,0.11,0.93
374,19.31,2.84,-43.83,-0.39,0.10,0.93
375,20.52,2.56,-44.44,-0.38,0.11,0.92
376,19.45,2.82,-45.50,-0.38,0.11,0.91
377,19.13,2.34,-45.73,-0.40,0.11,0.91
378,19.16,2.02,-45.83,-0.41,0.12,0.90
379,19.34,-0.70,-46.29,-0.42,0.11,0.90
380,19.60,-3.18,-47.07,-0.41,0.11,0.89
381,19.24,-5.10,-47.40,-0.42,0.12,0.87
382,19.54,-7.28,-46.76,-0.42,0.13,0.87
383,16.60,-6.56,-48.08,-0.41,0.13,0.87
384,14.58,-5.05,-48.56,-0.41,0.12,0.87
385,13.47,-5.01,-48.12,-0.42,0.11,0.88
386,11.79,-3.04,-47.73,-0.42,0.12,0.87
387,10.17,-1.34,-47.45,-0.41,0.11,0.90
388,9.66,0.81,-45.74,-0.45,0.10,0.92
389,8.47,2.49,-46.05,-0.42,0.09,0.92
390,10.67,3.51,-44.14,-0.39,0.08,0.94
391,12.40,6.15,-44.02,-0.39,0.08,0.95
392,9.16,11.05,-46.38,-0.37,0.09,0.92
393,13.05,9.62,-44.93,-0.41,0.07,0.92
394,10.44,13.33,-47.22,-0.40,0.10,0.90
395,12.29,10.90,-47.22,-0.43,0.08,0.89
396,12.58,9.65,-46.70,-0.45,0.10,0.88
397,12.87,6.90,-46.05,-0.48,0.09,0.85
398,10.95,4.89,-44.46,-0.50,0.10,0.83
399,8.00,3.98,-43.62,-0.50,0.12,0.83
400,10.90,-1.62,-40.73,-0.50,0.10,0.86
