,gyro_x,gyro_y,gyro_z,acce_x,acce_y,acce_z
0,1.19,-0.06,-11.02,0.10,-0.24,1.03
1,1.42,0.46,-11.94,0.11,-0.23,1.04
2,1.30,0.21,-12.37,0.11,-0.23,1.03
3,1.56,-0.03,-12.93,0.10,-0.23,1.03
4,0.70,-2.26,-12.76,0.09,-0.23,1.05
5,-12.99,4.78,-15.71,0.15,-0.17,1.09
6,2.34,5.10,-10.34,0.09,-0.24,1.07
7,-0.93,-3.02,-14.37,0.08,-0.24,1.08
8,2.06,2.47,-13.42,0.10,-0.26,1.01
9,3.37,5.24,-12.12,0.09,-0.24,1.03
10,2.34,2.56,-13.11,0.07,-0.25,1.07
11,3.25,-3.94,-13.98,0.07,-0.25,1.08
12,0.70,3.30,-11.45,0.11,-0.22,0.98
13,5.48,1.91,-13.59,0.06,-0.25,1.07
14,2.46,-1.45,-13.85,0.08,-0.24,1.08
15,4.73,0.21,-14.38,0.09,-0.25,1.03
16,4.00,1.07,-13.95,0.09,-0.24,1.05
17,3.82,0.09,-14.84,0.08,-0.25,1.06
18,3.08,0.00,-14.92,0.09,-0.24,1.05
19,4.05,1.42,-14.93,0.09,-0.25,1.06
20,3.82,1.95,-14.90,0.09,-0.24,1.05
21,5.56,4.49,-10.24,0.17,-0.27,1.03
22,0.63,-2.82,-20.46,0.00,-0.22,1.09
23,3.47,2.56,-15.40,0.08,-0.26,1.05
24,4.72,6.81,-14.21,0.08,-0.24,1.03
25,4.20,7.33,-14.76,0.07,-0.24,1.05
26,4.69,5.62,-16.58,0.07,-0.24,1.04
27,5.86,12.95,-17.98,0.11,-0.24,0.97
28,-3.28,14.27,-13.66,0.09,-0.19,0.99
29,1.13,6.76,-13.98,0.04,-0.26,1.06
30,1.36,-1.74,-18.50,0.02,-0.24,1.06
31,2.89,2.73,-15.53,0.09,-0.22,1.00
32,2.95,3.83,-15.53,0.08,-0.22,0.99
33,0.67,-1.89,-18.11,0.07,-0.22,1.02
34,-0.70,-4.95,-19.18,0.08,-0.22,1.01
35,0.17,-3.62,-18.73,0.10,-0.22,1.02
36,-0.52,-4.63,-19.42,0.10,-0.22,1.02
37,-0.46,-5.44,-20.40,0.11,-0.22,1.03
38,-0.11,-3.16,-20.35,0.12,-0.23,1.02
39,0.35,-0.87,-20.09,0.11,-0.23,1.02
40,-0.32,0.24,-19.77,0.10,-0.23,1.02
41,-0.26,2.90,-19.65,0.11,-0.22,1.02
42,-1.16,4.49,-19.56,0.10,-0.23,1.01
43,-2.11,4.50,-19.59,0.10,-0.22,1.02
44,-2.29,4.85,-19.91,0.09,-0.23,1.02
45,-2.99,4.24,-19.97,0.08,-0.24,1.03
46,-2.79,3.48,-20.14,0.07,-0.24,1.03
47,-3.08,2.72,-20.24,0.07,-0.24,1.03
48,-2.29,1.74,-20.34,0.07,-0.25,1.03
49,-2.11,1.74,-20.49,0.08,-0.24,1.02
50,-2.46,2.15,-20.72,0.09,-0.24,1.03
51,-2.87,1.08,-20.85,0.09,-0.24,1.04
52,-3.13,0.08,-21.47,0.09,-0.25,1.04
53,-3.07,0.24,-21.34,0.10,-0.25,1.03
54,-2.49,0.67,-21.33,0.09,-0.25,1.03
55,-2.60,0.61,-21.57,0.09,-0.25,1.04
56,-1.63,0.37,-21.77,0.09,-0.25,1.03
57,-0.79,0.40,-21.66,0.09,-0.24,1.02
58,-0.85,-0.21,-21.94,0.09,-0.24,1.02
59,-0.49,-0.47,-21.86,0.09,-0.23,1.02
60,-0.02,-0.79,-21.94,0.09,-0.24,1.03
61,0.82,-1.92,-22.69,0.10,-0.25,1.02
62,0.63,-2.47,-23.15,0.10,-0.25,1.02
63,0.05,-3.79,-23.54,0.09,-0.25,1.01
64,-0.63,-4.24,-23.89,0.10,-0.24,1.02
65,-1.07,-4.49,-23.74,0.10,-0.23,1.02
66,-1.33,-4.99,-24.23,0.11,-0.25,1.03
67,-1.62,-5.66,-24.18,0.11,-0.24,1.03
68,-0.73,-5.71,-24.58,0.12,-0.24,1.03
69,-0.03,-6.63,-24.96,0.11,-0.25,1.03
70,0.31,-7.25,-25.54,0.11,-0.24,1.02
71,0.95,-6.69,-25.80,0.12,-0.24,1.01
72,0.79,-7.47,-25.91,0.12,-0.24,1.03
73,0.63,-7.53,-26.47,0.12,-0.23,1.02
74,-0.02,-7.53,-26.37,0.13,-0.23,1.03
75,0.24,-7.25,-27.01,0.13,-0.24,1.03
76,-0.17,-7.11,-27.02,0.14,-0.24,1.03
77,-0.90,-5.74,-26.64,0.13,-0.23,1.02
78,-1.21,-3.33,-26.41,0.14,-0.24,1.03
79,-2.29,-2.17,-26.43,0.14,-0.24,1.03
80,-2.63,-0.26,-26.32,0.15,-0.23,1.03
81,-3.22,2.03,-26.06,0.14,-0.23,1.03
82,-2.47,3.11,-25.80,0.13,-0.24,1.05
83,-2.26,3.86,-25.91,0.13,-0.25,1.03
84,-2.09,5.33,-25.68,0.13,-0.24,1.04
85,-1.45,4.82,-25.94,0.12,-0.24,1.04
86,-1.86,3.76,-26.18,0.11,-0.24,1.04
87,-3.10,2.23,-26.70,0.11,-0.24,1.04
88,-3.42,2.27,-27.34,0.10,-0.22,1.06
89,-1.92,0.32,-27.15,0.10,-0.23,1.06
90,-0.73,-3.01,-27.25,0.12,-0.25,1.05
91,-2.35,-5.11,-27.63,0.11,-0.24,1.03
92,-2.35,-5.33,-28.61,0.11,-0.24,1.05
93,-2.15,-6.82,-28.70,0.12,-0.24,1.06
94,-1.71,-7.02,-28.78,0.11,-0.24,1.05
95,-0.40,-5.94,-28.50,0.13,-0.24,1.05
96,0.69,-6.23,-28.49,0.12,-0.25,1.05
97,0.87,-4.98,-28.41,0.12,-0.24,1.04
98,1.30,-2.61,-28.00,0.14,-0.23,1.04
99,1.94,-2.21,-27.82,0.15,-0.24,1.04
100,0.64,-0.69,-27.83,0.16,-0.23,1.04
101,-0.73,0.11,-27.69,0.16,-0.23,1.03
102,-0.76,2.73,-27.82,0.17,-0.24,1.03
103,-1.94,6.18,-27.16,0.17,-0.24,1.04
104,-1.27,7.65,-26.53,0.15,-0.24,1.03
105,-1.95,9.30,-26.37,0.13,-0.25,1.03
106,-1.34,8.15,-26.55,0.11,-0.25,1.04
107,-1.53,7.83,-26.34,0.11,-0.24,1.05
108,-1.21,6.17,-26.35,0.10,-0.25,1.05
109,-1.37,5.80,-26.06,0.11,-0.25,1.06
110,-1.10,5.33,-25.71,0.11,-0.25,1.05
111,-0.66,4.82,-25.65,0.12,-0.24,1.06
112,-0.18,5.57,-25.53,0.12,-0.25,1.05
113,0.24,5.02,-25.62,0.12,-0.25,1.05
114,0.79,4.95,-25.36,0.13,-0.24,1.04
115,0.63,4.82,-25.69,0.13,-0.25,1.04
116,0.03,4.02,-25.82,0.12,-0.24,1.05
117,-0.63,3.53,-25.74,0.13,-0.25,1.05
118,-0.69,4.35,-25.88,0.13,-0.24,1.05
119,-0.38,4.90,-25.66,0.13,-0.24,1.03
120,0.11,6.50,-25.30,0.14,-0.24,1.05
121,-0.08,7.62,-25.11,0.13,-0.25,1.03
122,0.18,8.82,-24.70,0.13,-0.23,1.05
123,0.26,9.13,-24.66,0.13,-0.24,1.03
124,0.32,8.34,-25.24,0.12,-0.24,1.03
125,0.76,8.29,-25.24,0.12,-0.24,1.05
126,1.24,8.49,-25.15,0.12,-0.24,1.03
127,1.01,8.53,-25.07,0.11,-0.24,1.02
128,0.93,8.27,-25.04,0.12,-0.23,1.03
129,0.81,8.20,-24.99,0.12,-0.24,1.03
130,0.52,7.74,-24.93,0.13,-0.23,1.03
131,0.32,7.83,-24.82,0.13,-0.23,1.03
132,0.00,8.31,-24.85,0.12,-0.22,1.02
133,-0.17,7.85,-25.28,0.12,-0.22,1.02
134,-0.06,6.92,-25.92,0.14,-0.23,1.02
135,-0.24,6.98,-25.86,0.13,-0.23,1.03
136,-0.11,7.18,-26.11,0.13,-0.23,1.03
137,-0.18,6.15,-26.35,0.12,-0.23,1.03
138,-0.05,5.51,-26.40,0.12,-0.23,1.03
139,0.41,5.27,-26.66,0.13,-0.23,1.03
140,0.43,4.93,-26.69,0.12,-0.23,1.03
141,-0.05,4.27,-26.99,0.13,-0.23,1.03
142,-0.46,4.02,-26.58,0.13,-0.22,1.03
143,-0.99,3.80,-26.85,0.14,-0.22,1.04
144,-1.48,3.27,-27.24,0.14,-0.23,1.05
145,-1.25,2.66,-27.34,0.14,-0.23,1.06
146,-0.92,1.48,-27.83,0.14,-0.23,1.04
147,-0.49,0.73,-28.26,0.14,-0.23,1.04
148,-0.03,-0.27,-28.72,0.14,-0.23,1.05
149,0.24,-2.75,-29.48,0.13,-0.23,1.05
150,0.99,-4.17,-29.95,0.13,-0.23,1.04
151,1.24,-3.89,-30.08,0.15,-0.23,1.03
152,1.79,-3.82,-30.12,0.15,-0.24,1.04
153,1.63,-2.99,-29.74,0.16,-0.22,1.04
154,1.59,-1.51,-29.60,0.16,-0.24,1.04
155,0.85,0.79,-29.04,0.17,-0.24,1.05
156,0.08,2.81,-28.90,0.16,-0.23,1.04
157,0.32,4.34,-28.76,0.17,-0.23,1.04
158,0.73,4.31,-29.10,0.17,-0.23,1.04
159,0.95,5.05,-29.34,0.17,-0.23,1.04
160,1.05,7.05,-29.57,0.17,-0.23,1.03
161,0.73,8.37,-29.77,0.15,-0.23,1.04
162,0.84,7.98,-29.95,0.14,-0.24,1.04
163,0.95,7.31,-29.82,0.14,-0.24,1.05
164,1.01,6.93,-29.86,0.13,-0.23,1.04
165,0.64,5.37,-30.06,0.13,-0.23,1.05
166,0.90,3.89,-30.58,0.14,-0.24,1.06
167,0.85,2.66,-30.52,0.13,-0.23,1.05
168,1.65,0.89,-30.76,0.12,-0.23,1.06
169,1.83,-1.44,-31.48,0.13,-0.22,1.05
170,2.44,-3.66,-32.37,0.14,-0.24,1.04
171,2.79,-5.39,-32.93,0.14,-0.23,1.04
172,3.22,-9.08,-33.76,0.13,-0.24,1.06
173,3.62,-10.35,-33.94,0.16,-0.24,1.07
174,4.29,-9.89,-33.94,0.15,-0.23,1.06
175,5.79,-9.91,-33.80,0.15,-0.23,1.05
176,6.96,-11.51,-33.82,0.15,-0.24,1.04
177,7.97,-11.48,-33.73,0.15,-0.23,1.05
178,8.66,-11.98,-33.74,0.15,-0.23,1.05
179,8.50,-14.02,-34.31,0.14,-0.23,1.05
180,8.46,-14.92,-34.26,0.16,-0.23,1.05
181,8.67,-14.05,-33.82,0.16,-0.21,1.04
182,9.16,-13.60,-33.95,0.17,-0.22,1.03
183,8.90,-12.69,-34.43,0.18,-0.21,1.02
184,9.21,-9.95,-34.21,0.20,-0.20,1.01
185,8.12,-6.50,-33.80,0.20,-0.20,1.02
186,7.19,-4.47,-33.73,0.20,-0.19,1.01
187,5.59,-2.09,-33.65,0.21,-0.19,1.01
188,4.21,0.17,-33.28,0.20,-0.19,1.01
189,2.72,2.24,-33.25,0.19,-0.20,1.02
190,2.03,3.57,-32.98,0.19,-0.20,1.02
191,1.51,3.39,-32.85,0.17,-0.20,1.02
192,0.95,3.36,-32.95,0.16,-0.20,1.03
193,0.79,4.67,-32.12,0.17,-0.20,1.03
194,0.52,5.48,-31.79,0.17,-0.20,1.04
195,0.82,6.31,-31.59,0.18,-0.20,1.04
196,1.13,6.89,-31.36,0.17,-0.19,1.04
197,1.79,7.25,-31.22,0.17,-0.20,1.03
198,2.09,8.11,-30.70,0.16,-0.20,1.05
199,2.35,8.82,-30.00,0.17,-0.20,1.05
200,2.84,8.84,-29.69,0.16,-0.20,1.05
201,2.96,7.62,-29.89,0.16,-0.19,1.03
202,3.22,6.99,-30.11,0.16,-0.18,1.04
203,3.73,6.06,-30.82,0.16,-0.19,1.04
204,3.42,4.93,-31.30,0.15,-0.18,1.04
205,3.37,3.56,-31.36,0.16,-0.18,1.03
206,3.36,2.81,-31.47,0.16,-0.18,1.03
207,3.18,1.27,-31.86,0.15,-0.18,1.02
208,3.24,0.11,-31.83,0.16,-0.18,1.03
209,3.50,0.14,-31.91,0.16,-0.18,1.03
210,3.37,-1.08,-31.86,0.16,-0.18,1.03
211,2.93,-2.23,-32.15,0.16,-0.18,1.04
212,2.38,-2.67,-31.91,0.17,-0.18,1.05
213,2.20,-2.37,-31.79,0.18,-0.18,1.05
214,1.92,-2.06,-31.65,0.18,-0.18,1.04
215,2.05,-1.45,-31.76,0.18,-0.18,1.05
216,2.46,-1.66,-32.20,0.18,-0.18,1.05
217,2.47,-1.60,-32.56,0.18,-0.17,1.04
218,2.05,-1.82,-32.79,0.19,-0.17,1.02
219,1.30,-2.35,-33.24,0.18,-0.17,1.04
220,1.10,-3.31,-33.45,0.18,-0.17,1.03
221,0.46,-3.74,-33.66,0.18,-0.17,1.02
222,0.63,-3.94,-33.73,0.18,-0.17,1.05
223,1.15,-3.95,-34.15,0.19,-0.17,1.04
224,0.93,-4.08,-33.95,0.19,-0.16,1.03
225,1.63,-3.97,-34.09,0.19,-0.16,1.03
226,1.73,-4.31,-33.98,0.20,-0.16,1.04
227,1.37,-4.32,-34.20,0.21,-0.15,1.03
228,0.95,-4.50,-34.79,0.22,-0.15,1.03
229,0.34,-4.90,-35.63,0.22,-0.15,1.02
230,0.05,-4.98,-36.50,0.23,-0.15,1.03
231,-0.55,-5.39,-37.54,0.24,-0.15,1.03
232,-0.99,-5.11,-38.00,0.23,-0.15,1.01
233,-1.27,-4.85,-38.21,0.23,-0.15,1.02
234,-1.66,-4.06,-37.88,0.22,-0.15,1.01
235,-2.24,-3.25,-37.88,0.23,-0.16,1.01
236,-2.50,-2.34,-38.05,0.23,-0.14,1.02
237,-2.17,-1.71,-38.32,0.24,-0.15,1.02
238,-2.08,-0.49,-38.75,0.26,-0.15,1.02
239,-1.77,0.17,-39.21,0.26,-0.15,1.03
240,-1.68,0.55,-40.23,0.26,-0.15,1.02
241,-1.10,-0.61,-41.27,0.26,-0.15,1.03
242,-1.30,-3.18,-42.47,0.25,-0.16,1.03
243,-0.76,-7.44,-43.88,0.24,-0.15,1.03
244,0.20,-13.25,-46.17,0.22,-0.15,1.02
245,0.75,-18.44,-48.14,0.24,-0.15,1.02
246,1.24,-20.67,-49.74,0.28,-0.15,1.02
247,0.84,-19.11,-50.44,0.31,-0.14,1.02
248,0.06,-12.98,-50.85,0.35,-0.15,1.02
249,-0.99,-3.40,-50.20,0.38,-0.15,1.01
250,-1.83,7.86,-48.87,0.38,-0.15,0.99
251,-2.76,17.74,-47.77,0.35,-0.15,1.00
252,-3.71,23.83,-47.24,0.30,-0.15,1.01
253,-5.07,26.93,-46.72,0.27,-0.16,1.01
254,-6.14,27.22,-46.35,0.25,-0.16,1.02
255,-7.48,25.54,-46.00,0.23,-0.17,1.04
256,-7.25,21.98,-46.84,0.20,-0.18,1.05
257,-5.85,15.83,-48.78,0.17,-0.19,1.05
258,-3.05,8.79,-50.73,0.16,-0.20,1.07
259,-0.81,2.93,-52.23,0.16,-0.19,1.07
260,1.97,-0.52,-52.38,0.17,-0.19,1.07
261,3.68,-4.90,-53.05,0.17,-0.19,1.06
262,4.93,-8.03,-53.30,0.18,-0.18,1.05
263,5.73,-8.99,-53.13,0.20,-0.17,1.05
264,5.51,-8.98,-53.11,0.23,-0.16,1.06
265,5.08,-7.01,-52.75,0.27,-0.15,1.05
266,4.15,-3.44,-52.35,0.28,-0.16,1.04
267,3.95,0.87,-51.54,0.28,-0.14,1.03
268,3.07,5.16,-50.96,0.27,-0.14,1.02
269,2.78,9.31,-50.23,0.26,-0.13,1.01
270,2.02,13.16,-49.83,0.26,-0.12,1.01
271,0.67,16.14,-49.54,0.27,-0.13,1.01
272,-0.66,17.34,-50.29,0.25,-0.13,1.02
273,-2.11,16.99,-50.41,0.22,-0.14,1.04
274,-2.82,16.40,-50.70,0.21,-0.14,1.04
275,-3.22,14.99,-50.40,0.20,-0.15,1.05
276,-2.85,12.92,-50.64,0.19,-0.16,1.07
277,-1.80,9.31,-51.36,0.18,-0.16,1.07
278,-0.67,7.01,-50.73,0.19,-0.16,1.06
279,0.90,4.15,-51.94,0.15,-0.16,1.07
280,1.10,5.50,-50.06,0.19,-0.15,1.08
281,2.20,8.26,-48.23,0.19,-0.15,1.07
282,2.64,7.89,-47.83,0.18,-0.14,1.05
283,3.97,6.90,-48.15,0.19,-0.14,1.04
284,4.44,7.45,-48.05,0.22,-0.13,1.03
285,4.23,7.31,-48.23,0.22,-0.12,1.04
286,3.02,7.74,-48.52,0.21,-0.12,1.04
287,1.62,7.73,-48.79,0.21,-0.12,1.04
288,1.01,7.05,-49.16,0.19,-0.12,1.04
289,-0.31,5.92,-49.18,0.20,-0.12,1.04
290,-0.56,5.18,-48.76,0.19,-0.12,1.04
291,-0.82,5.77,-48.21,0.20,-0.12,1.06
292,-0.63,7.07,-47.22,0.20,-0.12,1.05
293,-0.55,9.27,-46.18,0.22,-0.12,1.06
294,0.56,13.27,-45.68,0.23,-0.12,1.06
295,1.28,14.24,-45.47,0.24,-0.12,1.07
296,1.28,14.41,-46.31,0.23,-0.12,1.07
297,2.84,13.57,-47.68,0.23,-0.12,1.04
298,2.18,11.40,-49.13,0.22,-0.11,1.05
299,2.85,7.86,-50.79,0.20,-0.11,1.05
300,2.73,5.54,-51.16,0.18,-0.11,1.03
301,3.11,4.17,-51.28,0.18,-0.10,1.03
302,3.44,2.63,-51.34,0.18,-0.10,1.04
303,3.31,2.99,-52.32,0.19,-0.10,1.03
304,3.48,2.15,-52.12,0.21,-0.10,1.02
305,3.16,2.37,-51.71,0.22,-0.09,1.03
306,2.47,2.84,-51.24,0.21,-0.08,1.03
307,1.57,4.34,-50.23,0.22,-0.09,1.03
308,1.02,6.32,-49.45,0.23,-0.09,1.03
309,0.66,8.29,-49.44,0.24,-0.09,1.03
310,0.08,9.77,-50.02,0.24,-0.09,1.02
311,-0.18,12.05,-50.79,0.25,-0.08,1.00
312,-1.10,14.98,-50.81,0.24,-0.08,0.99
313,-1.94,17.51,-50.81,0.23,-0.08,1.00
314,-3.53,19.33,-50.56,0.22,-0.08,0.99
315,-4.84,20.09,-50.32,0.21,-0.08,0.99
316,-6.52,19.69,-50.03,0.19,-0.08,0.98
317,-8.47,20.69,-48.87,0.20,-0.08,1.00
318,-9.39,21.39,-48.06,0.20,-0.09,1.00
319,-10.32,22.15,-47.27,0.21,-0.09,1.01
320,-10.79,22.75,-47.98,0.22,-0.09,1.02
321,-10.37,23.04,-48.95,0.24,-0.09,1.03
322,-10.18,23.65,-50.20,0.24,-0.09,1.03
323,-9.50,23.88,-51.30,0.23,-0.09,1.03
324,-8.29,23.47,-52.11,0.20,-0.10,1.02
325,-7.71,22.46,-52.26,0.16,-0.10,1.02
326,-6.50,22.35,-51.16,0.14,-0.10,1.02
327,-6.06,20.81,-49.79,0.12,-0.10,1.02
328,-5.77,19.02,-48.87,0.12,-0.10,1.03
329,-5.42,17.60,-47.59,0.12,-0.10,1.04
330,-5.18,17.50,-46.41,0.14,-0.11,1.05
331,-4.60,16.76,-45.62,0.14,-0.12,1.05
332,-4.14,17.21,-45.15,0.14,-0.12,1.05
333,-3.25,18.09,-44.15,0.13,-0.11,1.06
334,-2.96,17.74,-43.31,0.11,-0.09,1.05
335,-2.43,17.24,-42.53,0.11,-0.10,1.04
336,-1.92,15.66,-42.47,0.11,-0.11,1.05
337,-1.42,13.48,-42.84,0.11,-0.11,1.05
338,-1.65,10.60,-43.54,0.10,-0.11,1.05
339,-1.76,8.44,-43.73,0.11,-0.11,1.05
340,-1.45,6.02,-43.94,0.11,-0.11,1.06
341,-1.60,5.33,-43.59,0.11,-0.10,1.06
342,-1.42,5.51,-42.78,0.10,-0.10,1.06
343,-1.18,6.35,-41.50,0.12,-0.10,1.07
344,-0.93,8.00,-40.84,0.13,-0.10,1.07
345,-0.52,9.25,-40.43,0.14,-0.10,1.07
346,-0.11,10.34,-39.50,0.13,-0.10,1.06
347,0.05,11.13,-39.36,0.12,-0.10,1.07
348,0.21,10.78,-39.08,0.11,-0.09,1.05
349,0.14,9.94,-39.28,0.10,-0.10,1.06
350,-0.06,7.63,-39.94,0.09,-0.09,1.06
351,0.23,5.57,-40.41,0.08,-0.09,1.07
352,0.93,3.28,-40.58,0.08,-0.08,1.06
353,1.15,0.38,-40.92,0.07,-0.10,1.07
354,2.12,-0.90,-40.72,0.06,-0.09,1.07
355,3.19,-4.29,-40.55,0.07,-0.09,1.06
356,4.23,-6.63,-40.38,0.08,-0.09,1.07
357,4.93,-8.50,-40.29,0.09,-0.08,1.06
358,4.27,-10.87,-40.99,0.10,-0.07,1.06
359,3.82,-13.37,-41.77,0.12,-0.07,1.06
360,4.11,-13.30,-42.60,0.12,-0.07,1.05
361,3.73,-12.15,-42.26,0.12,-0.07,1.05
362,2.20,-13.15,-42.15,0.13,-0.07,1.07
363,2.52,-11.34,-41.59,0.15,-0.08,1.07
364,2.69,-8.92,-41.31,0.16,-0.07,1.07
365,2.63,-6.12,-41.05,0.17,-0.07,1.06
366,2.35,-3.27,-40.56,0.16,-0.06,1.06
367,1.11,-0.70,-39.86,0.16,-0.05,1.06
368,1.18,1.94,-38.96,0.16,-0.05,1.05
369,0.21,5.22,-39.50,0.17,-0.04,1.05
370,-0.38,7.56,-40.02,0.20,-0.05,1.03
371,-1.76,8.85,-40.78,0.19,-0.04,1.04
372,-2.99,8.98,-42.35,0.17,-0.04,1.03
373,-4.60,8.95,-43.95,0.17,-0.04,1.03
374,-5.39,11.04,-44.79,0.18,-0.03,1.01
375,-6.09,13.30,-46.09,0.18,-0.03,0.99
376,-7.02,14.00,-47.77,0.18,-0.02,0.99
377,-9.24,5.76,-50.63,0.14,-0.03,1.03
378,-24.96,-21.18,-57.80,0.10,-0.02,1.00
379,-22.27,-14.69,-56.47,0.20,-0.01,0.97
380,-16.89,-4.89,-55.57,0.18,-0.06,1.02
381,-14.50,-5.25,-55.88,0.14,-0.05,1.08
382,-15.66,-10.44,-57.62,0.16,-0.05,1.05
383,-13.22,-10.89,-58.90,0.19,-0.06,1.01
384,-14.58,-8.66,-59.11,0.21,-0.05,1.03
385,-16.67,-7.57,-59.60,0.21,-0.05,1.03
386,-18.70,-6.89,-61.92,0.22,-0.07,1.04
387,-19.94,-6.09,-63.51,0.23,-0.07,1.03
388,-20.05,-4.81,-64.92,0.23,-0.07,1.03
389,-20.31,-3.91,-65.94,0.22,-0.07,1.03
390,-20.46,-3.19,-67.22,0.21,-0.08,1.03
391,-20.70,-3.11,-67.62,0.19,-0.08,1.04
392,-20.46,-2.26,-68.35,0.18,-0.10,1.06
393,-19.59,-3.15,-68.66,0.18,-0.10,1.04
394,-19.04,-5.31,-70.08,0.18,-0.10,1.06
395,-18.20,-8.05,-72.46,0.20,-0.11,1.06
396,-17.15,-9.42,-74.15,0.21,-0.10,1.07
397,-16.75,-11.40,-76.82,0.22,-0.11,1.08
398,-15.08,-12.93,-80.35,0.24,-0.12,1.08
399,-12.69,-15.86,-84.00,0.25,-0.13,1.08
400,-12.66,-14.61,-85.39,0.25,-0.10,1.07
