,gyro_x,gyro_y,gyro_z,acce_x,acce_y,acce_z
0,17.79,0.99,7.37,-0.26,-0.30,1.07
1,19.19,1.89,7.18,-0.26,-0.29,1.06
2,19.66,4.53,7.27,-0.26,-0.28,1.04
3,18.69,6.29,7.95,-0.27,-0.27,1.04
4,17.88,6.44,8.06,-0.28,-0.26,1.01
5,16.69,7.47,8.79,-0.28,-0.25,1.01
6,15.80,9.37,9.50,-0.29,-0.25,1.00
7,14.70,10.12,10.09,-0.29,-0.25,1.00
8,13.33,10.75,10.64,-0.29,-0.24,1.00
9,13.48,11.25,10.98,-0.29,-0.25,1.01
10,13.76,11.74,11.02,-0.30,-0.25,1.04
11,15.02,10.23,11.33,-0.30,-0.25,1.05
12,15.37,10.58,11.56,-0.30,-0.25,1.04
13,16.02,10.60,12.03,-0.31,-0.25,1.03
14,16.52,9.88,12.11,-0.31,-0.24,1.03
15,17.21,9.31,12.40,-0.31,-0.24,1.02
16,17.53,9.77,12.60,-0.31,-0.24,1.00
17,17.39,9.83,12.96,-0.31,-0.23,0.99
18,16.72,9.53,13.33,-0.31,-0.23,1.00
19,17.19,7.01,13.18,-0.32,-0.23,1.00
20,17.48,4.82,12.69,-0.31,-0.23,1.00
21,17.48,4.31,12.95,-0.31,-0.21,1.00
22,17.01,3.88,13.21,-0.31,-0.21,0.99
23,17.44,3.05,12.85,-0.29,-0.21,1.00
24,17.54,3.05,12.56,-0.28,-0.21,1.00
25,16.21,4.12,12.18,-0.28,-0.21,1.01
26,16.55,4.69,12.21,-0.28,-0.23,1.03
27,16.66,5.48,11.60,-0.27,-0.23,1.06
28,18.32,6.60,11.27,-0.26,-0.24,1.09
29,20.63,9.80,11.08,-0.25,-0.26,1.10
30,23.31,12.72,10.37,-0.25,-0.26,1.11
31,25.27,13.28,9.63,-0.29,-0.25,1.13
32,28.55,14.46,10.08,-0.30,-0.25,1.11
33,30.18,15.71,11.01,-0.32,-0.25,1.12
34,31.56,15.44,10.95,-0.34,-0.25,1.10
35,31.89,13.11,10.79,-0.36,-0.24,1.09
36,31.33,11.48,11.16,-0.38,-0.24,1.08
37,31.34,11.01,11.94,-0.39,-0.24,1.10
38,32.11,9.42,13.11,-0.40,-0.25,1.13
39,33.62,8.23,14.78,-0.42,-0.26,1.13
40,35.25,7.15,16.60,-0.43,-0.26,1.14
41,37.77,4.00,16.78,-0.46,-0.25,1.13
42,38.99,3.83,21.16,-0.43,-0.26,1.14
43,42.60,4.46,23.53,-0.42,-0.26,1.16
44,44.03,7.56,26.00,-0.41,-0.25,1.16
45,45.54,9.65,28.38,-0.39,-0.24,1.14
46,46.35,10.96,29.37,-0.38,-0.23,1.12
47,47.85,11.48,29.86,-0.37,-0.22,1.12
48,49.31,10.98,30.17,-0.38,-0.21,1.09
49,49.95,9.82,30.43,-0.40,-0.20,1.09
50,51.76,8.18,30.55,-0.40,-0.19,1.09
51,53.16,5.71,30.32,-0.40,-0.18,1.09
52,54.14,3.44,30.96,-0.40,-0.17,1.07
53,54.66,4.47,32.08,-0.39,-0.15,1.04
54,55.01,4.99,33.15,-0.37,-0.14,1.04
55,55.30,5.27,33.74,-0.35,-0.13,1.04
56,54.64,5.88,34.11,-0.32,-0.11,1.03
57,55.53,7.33,34.18,-0.32,-0.11,1.02
58,55.80,7.94,34.55,-0.32,-0.09,1.00
59,56.18,8.21,34.92,-0.32,-0.08,0.99
60,56.12,6.82,34.53,-0.32,-0.06,0.98
61,54.03,3.89,33.04,-0.32,-0.05,0.98
62,54.55,3.60,33.18,-0.32,-0.04,0.96
63,54.43,3.51,33.24,-0.31,-0.02,0.96
64,54.35,3.08,32.78,-0.29,-0.03,0.98
65,54.93,2.53,32.38,-0.29,-0.02,0.97
66,54.35,2.14,31.94,-0.31,-0.01,0.98
67,54.84,0.84,31.30,-0.32,-0.01,0.97
68,54.05,0.49,31.76,-0.32,-0.00,0.97
69,53.82,0.32,32.47,-0.32,0.01,0.96
70,53.37,0.50,32.96,-0.32,0.01,0.96
71,52.53,1.63,33.16,-0.30,0.02,0.98
72,52.98,2.73,33.08,-0.29,0.02,1.00
73,54.20,3.48,33.05,-0.30,0.02,1.00
74,54.93,2.85,32.60,-0.32,0.03,0.99
75,55.45,2.81,32.20,-0.32,0.05,0.98
76,55.74,0.29,31.16,-0.34,0.06,0.97
77,55.89,-2.14,30.55,-0.34,0.07,0.97
78,55.68,-4.24,29.94,-0.33,0.09,0.96
79,54.73,-5.83,29.54,-0.32,0.10,0.96
80,54.55,-6.37,29.48,-0.31,0.11,0.95
81,53.63,-2.63,30.35,-0.29,0.12,0.95
82,53.40,-1.36,30.50,-0.29,0.12,0.95
83,52.40,-0.40,30.05,-0.28,0.12,0.95
84,52.49,2.17,30.41,-0.28,0.13,0.95
85,52.02,3.22,30.32,-0.29,0.14,0.96
86,51.68,2.38,29.57,-0.29,0.14,0.96
87,50.98,1.92,29.19,-0.29,0.15,0.96
88,50.37,2.15,29.05,-0.29,0.16,0.96
89,50.18,3.57,29.08,-0.28,0.15,0.96
90,49.25,3.40,28.32,-0.28,0.16,0.98
91,50.12,3.85,27.36,-0.27,0.16,0.96
92,50.21,4.34,26.21,-0.28,0.17,0.96
93,50.03,4.38,25.44,-0.31,0.18,0.95
94,50.53,5.21,25.82,-0.32,0.18,0.95
95,53.68,5.15,26.34,-0.32,0.17,0.95
96,51.25,2.52,25.85,-0.36,0.20,0.94
97,52.11,1.18,26.63,-0.35,0.20,0.92
98,51.05,1.54,27.74,-0.33,0.22,0.92
99,50.75,1.07,28.24,-0.34,0.22,0.93
100,50.08,0.56,28.23,-0.33,0.23,0.93
101,48.79,1.88,28.78,-0.31,0.25,0.92
102,49.37,1.91,28.87,-0.31,0.25,0.92
103,49.11,1.25,28.37,-0.31,0.26,0.94
104,49.48,0.79,28.15,-0.30,0.26,0.92
105,49.19,0.49,27.79,-0.30,0.27,0.92
106,49.05,-1.15,27.37,-0.30,0.28,0.91
107,47.95,-1.83,26.90,-0.29,0.29,0.90
108,47.88,-1.45,26.55,-0.27,0.29,0.90
109,46.96,-1.85,25.98,-0.26,0.30,0.91
110,46.11,-3.21,24.95,-0.27,0.31,0.91
111,45.27,-2.95,24.50,-0.28,0.31,0.91
112,44.27,-2.82,24.44,-0.29,0.32,0.91
113,43.65,-2.09,25.11,-0.28,0.31,0.91
114,44.43,-1.51,25.21,-0.28,0.32,0.91
115,44.00,-2.02,24.75,-0.28,0.32,0.93
116,43.50,-4.09,23.86,-0.28,0.33,0.92
117,42.98,-3.82,23.69,-0.28,0.33,0.92
118,43.08,-3.54,23.24,-0.27,0.34,0.91
119,42.70,-3.57,22.69,-0.27,0.35,0.91
120,44.46,-2.98,23.02,-0.27,0.35,0.90
121,42.60,-2.82,22.78,-0.28,0.35,0.90
122,42.49,-1.77,22.78,-0.28,0.37,0.89
123,41.51,-1.71,22.79,-0.29,0.37,0.90
124,41.28,-2.38,22.81,-0.29,0.37,0.91
125,41.85,-3.16,22.79,-0.28,0.36,0.92
126,41.15,-2.76,23.21,-0.27,0.37,0.91
127,42.02,-1.33,23.77,-0.28,0.38,0.90
128,41.82,-0.76,23.89,-0.27,0.39,0.90
129,41.22,0.46,24.03,-0.26,0.39,0.88
130,40.64,1.33,23.68,-0.25,0.40,0.88
131,40.49,-0.34,22.73,-0.26,0.42,0.89
132,40.05,-0.44,22.50,-0.26,0.42,0.89
133,41.18,0.63,22.52,-0.26,0.42,0.88
134,39.82,-0.24,21.66,-0.26,0.42,0.90
135,39.66,-1.11,21.27,-0.26,0.43,0.88
136,39.48,-0.75,21.65,-0.25,0.43,0.89
137,38.78,-0.05,21.54,-0.26,0.43,0.89
138,39.01,0.06,21.28,-0.25,0.44,0.88
139,38.26,-0.14,20.70,-0.25,0.45,0.86
140,38.29,-0.06,20.63,-0.25,0.45,0.87
141,37.63,0.72,20.64,-0.25,0.46,0.87
142,37.36,2.23,21.11,-0.25,0.45,0.86
143,36.99,3.68,21.56,-0.26,0.45,0.88
144,37.13,4.34,21.36,-0.25,0.45,0.87
145,36.93,4.09,21.08,-0.26,0.45,0.89
146,37.47,3.82,21.24,-0.28,0.45,0.89
147,37.48,4.20,21.56,-0.27,0.46,0.88
148,38.02,1.98,20.87,-0.27,0.46,0.87
149,38.03,-1.13,20.12,-0.28,0.47,0.88
150,38.90,-1.69,20.49,-0.27,0.46,0.88
151,39.42,0.11,22.00,-0.26,0.47,0.86
152,40.17,0.73,22.24,-0.26,0.48,0.87
153,40.05,-0.02,21.95,-0.26,0.48,0.87
154,40.43,0.69,22.24,-0.25,0.50,0.86
155,39.40,2.02,22.12,-0.25,0.50,0.84
156,38.73,1.88,21.94,-0.25,0.51,0.85
157,37.95,0.52,21.27,-0.26,0.51,0.85
158,38.49,-1.65,20.55,-0.26,0.50,0.85
159,38.23,-3.02,20.18,-0.26,0.49,0.87
160,38.87,-0.35,21.63,-0.27,0.49,0.88
161,40.66,2.85,23.30,-0.26,0.50,0.88
162,41.27,3.85,24.24,-0.27,0.51,0.88
163,41.40,5.30,24.76,-0.26,0.52,0.86
164,41.18,4.60,24.93,-0.27,0.53,0.86
165,41.02,2.73,24.41,-0.28,0.54,0.86
166,40.96,1.30,24.35,-0.26,0.56,0.85
167,40.55,1.02,24.41,-0.24,0.56,0.83
168,40.76,1.39,24.32,-0.22,0.57,0.84
169,41.13,3.40,24.66,-0.21,0.56,0.85
170,41.48,5.34,25.53,-0.22,0.57,0.83
171,41.18,6.00,25.34,-0.21,0.58,0.81
172,40.98,4.78,24.84,-0.21,0.58,0.81
173,40.52,3.63,24.06,-0.21,0.58,0.81
174,40.29,2.85,23.45,-0.21,0.58,0.81
175,39.83,2.09,22.93,-0.21,0.59,0.81
176,39.83,-0.31,21.66,-0.20,0.59,0.82
177,40.14,-2.63,20.09,-0.21,0.59,0.81
178,40.08,-3.68,19.45,-0.21,0.59,0.80
179,40.27,-2.55,19.53,-0.20,0.60,0.81
180,40.41,-2.02,19.34,-0.20,0.60,0.81
181,40.43,-0.14,19.80,-0.19,0.60,0.80
182,40.44,0.47,19.83,-0.20,0.61,0.80
183,43.10,0.46,19.89,-0.20,0.59,0.82
184,44.23,1.53,20.20,-0.20,0.60,0.81
185,42.18,1.08,20.11,-0.21,0.62,0.79
186,41.88,1.01,20.11,-0.21,0.63,0.78
187,41.47,0.52,20.24,-0.21,0.64,0.78
188,42.11,-0.06,21.13,-0.22,0.64,0.76
189,42.27,0.09,21.48,-0.20,0.65,0.77
190,42.90,0.46,21.42,-0.19,0.65,0.75
191,42.84,1.27,21.83,-0.19,0.66,0.75
192,42.82,0.53,21.54,-0.18,0.66,0.76
193,42.06,-0.55,20.34,-0.18,0.66,0.74
194,41.77,-0.43,20.06,-0.18,0.68,0.74
195,41.51,-0.20,19.80,-0.18,0.68,0.74
196,40.70,-0.29,19.86,-0.17,0.68,0.72
197,41.05,-0.95,19.59,-0.18,0.67,0.73
198,41.04,-2.75,18.66,-0.18,0.68,0.73
199,41.47,-3.73,18.29,-0.18,0.67,0.74
200,41.76,-3.37,18.24,-0.18,0.67,0.73
201,42.15,-2.55,18.23,-0.17,0.67,0.73
202,42.49,-2.96,17.89,-0.16,0.67,0.75
203,43.01,-2.08,17.80,-0.17,0.67,0.74
204,43.27,-0.53,18.34,-0.17,0.67,0.73
205,43.27,0.12,19.13,-0.19,0.68,0.73
206,43.56,0.66,19.71,-0.18,0.69,0.72
207,43.85,0.31,19.98,-0.18,0.70,0.72
208,43.95,0.08,19.95,-0.17,0.71,0.72
209,43.77,0.95,20.15,-0.16,0.71,0.69
210,43.94,1.04,20.40,-0.16,0.73,0.69
211,44.47,0.31,20.08,-0.14,0.73,0.69
212,44.78,0.17,19.83,-0.13,0.73,0.68
213,44.90,1.25,19.56,-0.14,0.73,0.67
214,44.64,1.65,19.56,-0.14,0.74,0.66
215,44.47,0.55,18.87,-0.14,0.75,0.65
216,43.91,-0.24,18.18,-0.13,0.75,0.64
217,43.42,-2.02,17.51,-0.14,0.75,0.64
218,42.79,-3.05,16.99,-0.14,0.75,0.65
219,42.55,-2.27,17.33,-0.12,0.75,0.65
220,42.55,-1.31,17.24,-0.12,0.76,0.66
221,42.47,-1.24,16.64,-0.11,0.76,0.65
222,42.87,-1.80,16.12,-0.13,0.76,0.65
223,43.05,-0.95,16.55,-0.12,0.77,0.63
224,43.48,-0.56,16.69,-0.12,0.77,0.64
225,43.16,-1.18,16.38,-0.13,0.77,0.62
226,43.63,-1.47,16.05,-0.12,0.78,0.62
227,43.39,-0.27,16.14,-0.11,0.78,0.62
228,43.51,0.11,16.00,-0.11,0.78,0.61
229,43.36,-0.35,15.47,-0.11,0.79,0.61
230,42.70,1.44,15.36,-0.09,0.79,0.59
231,42.27,2.66,15.10,-0.10,0.80,0.59
232,41.82,2.44,14.72,-0.11,0.80,0.58
233,41.57,1.01,13.86,-0.11,0.80,0.58
234,40.61,0.63,13.13,-0.12,0.81,0.57
235,39.94,0.26,12.82,-0.12,0.81,0.57
236,38.99,-0.61,12.27,-0.13,0.81,0.57
237,37.91,-1.04,12.00,-0.12,0.82,0.54
238,37.02,-1.56,12.05,-0.13,0.82,0.55
239,36.67,-1.97,11.69,-0.13,0.82,0.56
240,35.98,-0.81,11.98,-0.12,0.82,0.55
241,34.66,1.60,12.53,-0.11,0.83,0.55
242,34.24,2.73,13.05,-0.11,0.83,0.55
243,34.72,3.48,13.30,-0.12,0.82,0.57
244,36.15,6.20,14.47,-0.11,0.83,0.56
245,36.17,6.89,15.24,-0.12,0.82,0.56
246,35.36,3.34,13.80,-0.14,0.84,0.55
247,35.65,2.00,13.37,-0.12,0.84,0.55
248,37.02,1.53,13.83,-0.13,0.83,0.57
249,38.27,-0.76,13.88,-0.15,0.82,0.59
250,38.95,-0.78,14.24,-0.13,0.83,0.57
251,40.21,-1.28,14.03,-0.12,0.82,0.57
252,40.82,-2.43,13.82,-0.12,0.83,0.58
253,41.85,-1.51,14.47,-0.12,0.84,0.55
254,42.27,-1.10,15.05,-0.13,0.85,0.53
255,42.05,-1.37,14.82,-0.12,0.86,0.51
256,41.50,-1.82,14.78,-0.12,0.87,0.50
257,41.18,-2.40,14.35,-0.12,0.86,0.50
258,40.75,-3.01,14.40,-0.13,0.86,0.50
259,40.44,-2.96,14.60,-0.13,0.86,0.50
260,40.31,-1.30,15.22,-0.11,0.86,0.50
261,40.11,-0.11,15.63,-0.11,0.87,0.48
262,39.77,0.90,16.05,-0.12,0.87,0.46
263,39.45,1.62,17.19,-0.13,0.88,0.46
264,39.71,1.83,18.11,-0.14,0.87,0.45
265,39.54,0.35,18.29,-0.14,0.87,0.46
266,39.95,-0.61,18.18,-0.12,0.87,0.44
267,40.81,-2.60,18.15,-0.13,0.88,0.45
268,40.53,-5.19,17.86,-0.14,0.89,0.45
269,39.88,-4.81,18.67,-0.13,0.89,0.42
270,39.53,-4.08,19.59,-0.12,0.90,0.41
271,38.95,-5.88,19.28,-0.12,0.89,0.41
272,38.78,-5.54,19.40,-0.10,0.90,0.42
273,38.12,-3.28,19.85,-0.09,0.90,0.40
274,37.60,-2.44,20.40,-0.09,0.90,0.40
275,36.73,-3.05,20.50,-0.10,0.91,0.39
276,36.15,-2.40,21.53,-0.10,0.91,0.39
277,35.40,-1.48,22.32,-0.09,0.91,0.40
278,35.22,-1.86,22.18,-0.08,0.91,0.40
279,34.50,-2.58,21.88,-0.07,0.91,0.39
280,33.83,-1.77,22.02,-0.06,0.91,0.38
281,34.24,-2.06,21.73,-0.07,0.91,0.41
282,34.44,-2.92,21.65,-0.07,0.90,0.40
283,35.11,-2.93,21.80,-0.06,0.90,0.39
284,35.33,-4.05,21.34,-0.07,0.90,0.40
285,35.86,-5.27,21.27,-0.07,0.90,0.39
286,35.77,-4.53,21.86,-0.07,0.91,0.39
287,35.80,-3.10,22.79,-0.06,0.91,0.38
288,35.63,-2.14,23.45,-0.06,0.92,0.37
289,35.24,-1.53,23.83,-0.05,0.93,0.36
290,34.67,0.05,24.23,-0.04,0.93,0.36
291,33.95,0.46,24.50,-0.04,0.94,0.35
292,33.34,0.63,24.89,-0.05,0.93,0.35
293,33.77,0.49,25.69,-0.05,0.93,0.36
294,33.91,0.23,26.12,-0.04,0.93,0.36
295,34.50,-1.13,26.24,-0.04,0.93,0.37
296,34.69,-2.90,25.71,-0.03,0.93,0.36
297,35.11,-3.95,25.30,-0.01,0.93,0.35
298,36.06,-4.46,24.75,0.00,0.92,0.38
299,36.41,-5.08,24.08,0.00,0.93,0.36
300,36.41,-4.00,24.12,0.00,0.92,0.34
301,36.67,-1.45,24.89,-0.00,0.94,0.33
302,36.89,-0.79,24.55,0.01,0.94,0.35
303,37.28,-1.48,24.26,-0.00,0.93,0.34
304,37.44,-0.31,24.40,0.00,0.94,0.34
305,37.40,0.96,24.84,-0.01,0.94,0.33
306,37.50,-0.41,24.64,-0.02,0.94,0.33
307,37.77,-1.39,24.58,-0.01,0.93,0.33
308,38.43,-1.36,25.59,-0.02,0.93,0.32
309,38.37,-1.21,26.24,-0.02,0.94,0.32
310,38.92,-1.53,26.98,-0.01,0.94,0.31
311,39.22,-2.29,27.51,-0.01,0.94,0.32
312,39.25,-2.69,28.00,-0.01,0.94,0.30
313,39.36,-3.21,28.23,0.02,0.94,0.30
314,39.98,-3.79,27.97,0.03,0.94,0.30
315,40.47,-4.08,27.18,0.04,0.94,0.29
316,40.38,-4.37,26.56,0.05,0.95,0.27
317,40.20,-5.80,25.77,0.04,0.95,0.28
318,40.34,-6.17,25.42,0.04,0.94,0.28
319,40.85,-5.94,25.08,0.04,0.94,0.28
320,40.87,-6.09,25.53,0.03,0.95,0.26
321,40.82,-5.65,25.89,0.05,0.95,0.25
322,40.98,-4.60,26.17,0.06,0.95,0.25
323,41.24,-4.78,25.94,0.05,0.95,0.24
324,41.37,-5.74,25.94,0.05,0.95,0.25
325,42.02,-6.00,26.26,0.05,0.95,0.25
326,42.50,-6.34,26.44,0.06,0.94,0.25
327,43.04,-5.79,26.37,0.08,0.95,0.24
328,42.73,-5.73,26.40,0.07,0.94,0.23
329,43.11,-4.90,26.38,0.08,0.95,0.23
330,43.44,-4.72,26.26,0.08,0.95,0.23
331,43.76,-4.85,26.00,0.08,0.96,0.22
332,43.36,-5.07,25.92,0.08,0.95,0.20
333,43.59,-5.08,26.35,0.07,0.96,0.20
334,43.47,-5.02,26.26,0.08,0.96,0.19
335,43.63,-4.41,26.35,0.10,0.96,0.18
336,43.53,-4.24,26.50,0.10,0.96,0.19
337,43.16,-3.59,26.50,0.11,0.97,0.18
338,43.25,-1.98,26.82,0.10,0.96,0.17
339,43.18,-2.55,27.10,0.10,0.96,0.17
340,41.98,-3.56,26.73,0.09,0.96,0.17
341,43.08,-4.95,26.82,0.08,0.95,0.16
342,44.73,-7.76,26.98,0.09,0.94,0.16
343,46.09,-7.02,28.14,0.09,0.94,0.15
344,47.04,-6.20,29.39,0.11,0.95,0.14
345,47.22,-7.07,29.42,0.11,0.95,0.14
346,47.80,-6.99,29.83,0.11,0.95,0.12
347,47.27,-6.55,30.32,0.12,0.95,0.12
348,44.96,-6.58,30.55,0.12,0.97,0.11
349,44.72,-6.06,30.58,0.12,0.96,0.10
350,46.06,-6.37,30.70,0.12,0.96,0.08
351,43.83,-6.03,30.53,0.14,0.98,0.08
352,43.65,-5.86,30.03,0.15,0.97,0.10
353,44.14,-6.69,29.04,0.15,0.96,0.10
354,43.66,-6.67,29.10,0.15,0.96,0.10
355,44.26,-7.05,28.84,0.15,0.95,0.08
356,44.17,-8.35,28.78,0.14,0.95,0.08
357,45.48,-9.04,28.95,0.14,0.94,0.07
358,46.78,-10.35,29.37,0.13,0.94,0.09
359,47.73,-10.93,29.97,0.14,0.92,0.08
360,48.58,-10.24,30.84,0.15,0.94,0.07
361,48.55,-9.40,31.91,0.16,0.94,0.06
362,47.88,-10.21,31.50,0.16,0.94,0.06
363,46.20,-9.19,32.35,0.16,0.94,0.04
364,48.85,-8.38,33.05,0.17,0.92,0.05
365,49.65,-9.63,32.56,0.15,0.93,0.05
366,52.46,-10.84,32.90,0.15,0.91,0.07
367,55.39,-10.03,33.79,0.16,0.91,0.07
368,57.95,-10.41,34.55,0.16,0.91,0.04
369,58.41,-11.28,34.49,0.15,0.92,0.02
370,57.69,-12.29,34.75,0.16,0.91,0.01
371,56.78,-11.50,35.21,0.16,0.93,-0.01
372,55.69,-12.49,34.87,0.16,0.93,0.00
373,55.31,-13.53,34.76,0.16,0.91,-0.03
374,54.73,-13.77,34.66,0.18,0.93,-0.02
375,55.65,-11.68,35.54,0.19,0.91,-0.03
376,57.66,-10.21,36.98,0.19,0.91,-0.01
377,58.92,-12.92,36.20,0.17,0.89,-0.01
378,61.80,-15.92,36.44,0.16,0.87,0.01
379,64.60,-15.60,37.92,0.18,0.88,-0.01
380,67.54,-15.21,38.73,0.19,0.86,-0.01
381,68.44,-16.58,38.60,0.17,0.87,-0.03
382,69.66,-17.07,39.68,0.18,0.86,-0.05
383,70.26,-17.50,40.67,0.18,0.87,-0.06
384,70.26,-18.26,41.51,0.19,0.88,-0.09
385,71.05,-18.96,42.70,0.20,0.88,-0.10
386,72.90,-19.56,44.52,0.21,0.88,-0.10
387,75.45,-20.18,46.18,0.22,0.88,-0.12
388,74.81,-20.81,46.81,0.25,0.90,-0.16
389,71.77,-20.15,47.02,0.26,0.91,-0.22
390,70.55,-19.66,47.31,0.27,0.92,-0.23
391,67.44,-20.85,45.47,0.30,0.92,-0.25
392,65.79,-21.24,43.98,0.33,0.91,-0.25
393,64.58,-21.65,42.15,0.33,0.90,-0.24
394,65.22,-21.37,40.67,0.33,0.87,-0.24
395,64.63,-19.92,40.44,0.34,0.86,-0.22
396,65.36,-17.13,41.18,0.36,0.85,-0.24
397,64.58,-15.86,40.63,0.35,0.85,-0.22
398,68.64,-16.82,41.04,0.34,0.81,-0.23
399,70.44,-18.47,41.50,0.33,0.80,-0.22
400,71.37,-16.32,42.55,0.34,0.79,-0.24
