,gyro_x,gyro_y,gyro_z,acce_x,acce_y,acce_z
0,18.66,7.85,-0.32,0.13,-0.39,1.15
1,20.78,10.85,0.37,0.14,-0.37,1.13
2,22.08,13.34,-0.05,0.13,-0.36,1.13
3,22.53,12.34,-0.85,0.10,-0.35,1.13
4,24.29,9.53,-1.83,0.08,-0.35,1.12
5,24.70,7.53,-2.50,0.07,-0.33,1.11
6,24.32,3.53,-2.99,0.06,-0.32,1.11
7,25.65,0.34,-4.34,0.07,-0.33,1.08
8,25.21,-0.29,-5.68,0.10,-0.31,1.08
9,23.22,-0.11,-5.83,0.11,-0.29,1.10
10,23.33,2.46,-4.75,0.12,-0.31,1.10
11,22.38,5.71,-4.78,0.13,-0.30,1.10
12,23.42,8.81,-4.75,0.12,-0.31,1.11
13,25.18,9.94,-3.36,0.11,-0.32,1.12
14,25.74,10.66,-2.72,0.09,-0.32,1.11
15,26.87,11.18,-1.60,0.08,-0.32,1.12
16,29.13,10.76,-0.53,0.08,-0.31,1.11
17,31.44,12.17,1.10,0.07,-0.32,1.09
18,33.56,10.76,1.25,0.05,-0.31,1.10
19,36.55,7.89,0.50,0.04,-0.31,1.09
20,38.67,5.40,-0.15,0.03,-0.30,1.07
21,38.35,-0.73,-2.40,0.01,-0.26,1.09
22,42.02,-8.08,-2.64,0.02,-0.29,1.08
23,40.96,-12.69,-3.39,0.05,-0.25,1.07
24,40.70,-14.96,-4.17,0.09,-0.23,1.06
25,39.50,-15.66,-4.84,0.13,-0.23,1.05
26,37.42,-13.56,-6.23,0.16,-0.22,1.06
27,36.63,-8.58,-5.66,0.17,-0.23,1.08
28,36.95,-3.31,-4.08,0.16,-0.24,1.08
29,36.85,1.01,-2.81,0.15,-0.25,1.09
30,37.33,4.11,-3.30,0.13,-0.26,1.09
31,37.82,6.02,-3.44,0.10,-0.25,1.09
32,37.97,4.40,-4.41,0.06,-0.26,1.10
33,41.22,2.85,-5.05,0.05,-0.28,1.09
34,40.96,-1.11,-5.01,0.04,-0.25,1.09
35,41.28,-5.33,-6.44,0.03,-0.25,1.08
36,41.92,-5.16,-6.05,0.07,-0.24,1.09
37,41.69,-6.50,-5.63,0.06,-0.23,1.10
38,43.54,-7.74,-3.79,0.07,-0.23,1.10
39,44.38,-7.37,-3.57,0.10,-0.23,1.10
40,45.37,-4.98,-3.76,0.11,-0.22,1.08
41,45.80,-3.76,-4.70,0.12,-0.20,1.08
42,45.86,-2.99,-4.90,0.11,-0.20,1.08
43,44.89,-1.51,-4.00,0.12,-0.17,1.07
44,44.53,0.06,-3.25,0.11,-0.17,1.07
45,43.65,0.17,-3.63,0.11,-0.17,1.06
46,42.03,0.14,-5.51,0.09,-0.17,1.06
47,42.14,-5.24,-7.62,0.06,-0.17,1.07
48,43.56,-11.36,-8.69,0.05,-0.17,1.07
49,42.92,-14.23,-9.80,0.06,-0.15,1.06
50,42.32,-14.98,-9.57,0.07,-0.14,1.05
51,41.74,-15.16,-8.44,0.08,-0.14,1.06
52,41.85,-13.77,-7.53,0.10,-0.15,1.07
53,41.92,-10.96,-5.92,0.11,-0.15,1.08
54,42.17,-9.25,-3.73,0.11,-0.15,1.10
55,42.21,-6.93,-2.41,0.14,-0.14,1.09
56,42.38,-3.13,-0.46,0.16,-0.14,1.10
57,42.20,1.02,0.98,0.16,-0.13,1.10
58,43.36,2.95,-0.08,0.15,-0.13,1.13
59,42.76,4.49,-0.87,0.17,-0.14,1.10
60,45.56,3.21,-2.49,0.14,-0.14,1.09
61,47.83,1.07,-2.90,0.11,-0.13,1.11
62,49.34,-2.72,-4.63,0.09,-0.13,1.09
63,51.53,-6.98,-6.29,0.09,-0.11,1.07
64,52.43,-11.91,-7.74,0.09,-0.09,1.07
65,53.40,-15.30,-9.21,0.11,-0.09,1.05
66,52.44,-15.10,-9.05,0.13,-0.06,1.04
67,51.59,-13.11,-8.09,0.15,-0.05,1.02
68,49.31,-11.10,-7.65,0.16,-0.03,1.02
69,48.14,-8.21,-5.44,0.16,-0.03,1.02
70,46.06,-4.84,-3.83,0.16,-0.02,1.02
71,44.55,-1.62,-2.92,0.15,-0.01,1.02
72,43.36,0.61,-1.54,0.13,-0.01,1.02
73,43.77,2.38,-0.34,0.12,-0.02,1.02
74,43.37,5.54,-0.12,0.13,-0.02,1.01
75,41.92,2.67,-2.87,0.08,-0.00,1.05
76,44.93,-3.08,-2.87,0.07,-0.03,1.05
77,46.12,-7.40,-3.01,0.06,-0.01,1.03
78,47.71,-11.82,-3.22,0.06,-0.02,1.03
79,48.55,-15.19,-3.60,0.09,-0.00,1.02
80,48.58,-17.05,-5.44,0.13,0.01,1.02
81,48.55,-17.25,-7.21,0.15,0.02,1.02
82,47.62,-15.74,-7.83,0.18,0.03,1.01
83,46.12,-12.34,-8.20,0.19,0.05,1.00
84,43.82,-8.85,-8.79,0.19,0.07,1.00
85,41.77,-6.43,-8.76,0.19,0.06,1.00
86,39.98,-2.78,-7.22,0.18,0.06,1.02
87,38.72,1.19,-4.98,0.17,0.05,1.02
88,38.99,2.23,-3.77,0.15,0.03,1.04
89,40.44,4.26,-2.76,0.15,0.02,1.04
90,40.73,7.68,-2.00,0.14,0.02,1.02
91,41.37,6.81,-1.57,0.10,0.05,1.03
92,43.51,4.69,-0.03,0.07,0.03,1.04
93,43.77,0.56,-1.21,0.06,0.06,1.02
94,44.24,-5.63,-3.18,0.05,0.07,1.02
95,43.83,-11.31,-4.64,0.07,0.09,1.01
96,42.41,-25.10,-8.78,0.07,0.11,1.05
97,41.62,-15.98,-7.11,0.14,0.10,0.94
98,38.56,-14.78,-8.43,0.16,0.14,1.00
99,38.50,-11.33,-6.50,0.17,0.12,1.01
100,36.90,-7.66,-5.39,0.17,0.12,1.00
101,37.71,-5.37,-3.74,0.16,0.11,1.00
102,38.05,-4.03,-2.31,0.15,0.11,1.01
103,38.47,-4.02,-1.18,0.15,0.11,1.02
104,38.61,-3.40,-1.21,0.15,0.10,1.04
105,40.03,-5.95,-2.24,0.12,0.09,1.04
106,41.34,-10.21,-2.99,0.11,0.09,1.05
107,42.44,-13.82,-4.75,0.11,0.11,1.05
108,43.44,-17.11,-6.15,0.13,0.12,1.04
109,43.27,-17.63,-6.55,0.14,0.15,1.00
110,43.08,-15.40,-6.03,0.15,0.16,0.99
111,41.91,-14.72,-5.57,0.15,0.17,1.00
112,40.92,-13.47,-5.56,0.16,0.17,1.00
113,39.31,-14.24,-6.41,0.15,0.19,1.01
114,37.89,-15.33,-7.33,0.16,0.19,1.01
115,36.29,-14.35,-7.56,0.20,0.20,1.03
116,34.14,-11.83,-7.59,0.22,0.20,1.02
117,33.62,-9.44,-7.56,0.23,0.19,1.02
118,33.28,-5.73,-7.13,0.21,0.19,1.02
119,33.95,-4.76,-6.67,0.18,0.18,1.03
120,35.31,-5.08,-6.87,0.15,0.17,1.02
121,37.13,-6.27,-6.34,0.14,0.17,1.02
122,37.69,-8.26,-6.64,0.14,0.19,1.02
123,38.40,-11.21,-7.92,0.14,0.19,1.02
124,39.37,-14.17,-9.37,0.16,0.20,1.05
125,39.73,-16.35,-10.27,0.18,0.20,1.05
126,41.30,-15.28,-10.55,0.20,0.20,1.04
127,42.37,-12.93,-10.52,0.22,0.21,1.03
128,42.64,-11.07,-10.56,0.21,0.22,1.03
129,43.85,-7.95,-8.61,0.20,0.23,1.01
130,43.34,-4.66,-6.99,0.19,0.24,1.01
131,43.37,-3.24,-5.39,0.17,0.24,1.00
132,43.98,-3.62,-5.57,0.16,0.24,1.00
133,43.88,-5.88,-5.44,0.13,0.26,0.99
134,43.27,-10.20,-5.83,0.13,0.27,0.99
135,42.46,-11.97,-6.72,0.15,0.28,0.98
136,41.19,-12.73,-7.31,0.16,0.28,0.98
137,41.31,-14.72,-8.03,0.15,0.28,0.99
138,41.01,-15.92,-8.37,0.16,0.28,0.99
139,41.30,-16.35,-9.10,0.17,0.29,1.00
140,41.71,-15.54,-8.99,0.18,0.29,0.99
141,41.65,-12.49,-7.16,0.20,0.31,0.98
142,40.79,-9.62,-5.05,0.21,0.31,0.98
143,39.36,-6.53,-4.84,0.23,0.32,0.99
144,38.09,-3.94,-5.08,0.23,0.32,1.00
145,38.34,-2.95,-4.60,0.21,0.31,1.01
146,38.99,-3.59,-4.82,0.18,0.30,1.03
147,40.21,-6.69,-5.97,0.17,0.29,1.03
148,42.49,-11.44,-7.31,0.16,0.29,1.03
149,44.37,-15.69,-9.25,0.18,0.29,1.04
150,45.18,-18.95,-10.60,0.20,0.31,1.03
151,45.18,-20.63,-13.02,0.21,0.32,1.02
152,46.24,-19.60,-12.95,0.21,0.32,1.01
153,46.85,-17.07,-12.02,0.22,0.33,0.99
154,47.18,-13.44,-10.46,0.23,0.34,1.00
155,46.93,-10.24,-8.78,0.23,0.36,0.98
156,46.18,-6.84,-7.01,0.23,0.37,0.98
157,45.73,-3.47,-5.54,0.25,0.37,0.99
158,45.33,-2.00,-6.18,0.24,0.36,0.99
159,45.11,-0.70,-7.37,0.24,0.37,1.00
160,45.53,0.37,-8.00,0.23,0.35,0.99
161,46.81,-0.20,-9.22,0.21,0.35,0.99
162,48.96,0.12,-9.57,0.18,0.35,0.98
163,51.01,-0.93,-9.28,0.16,0.37,0.96
164,52.55,-0.66,-9.01,0.15,0.38,0.94
165,52.82,-0.90,-8.31,0.14,0.41,0.92
166,52.15,-4.12,-7.31,0.12,0.42,0.92
167,51.98,-8.03,-6.67,0.13,0.43,0.91
168,50.78,-11.07,-6.95,0.16,0.45,0.90
169,48.08,-11.48,-7.92,0.19,0.45,0.91
170,46.52,-10.50,-8.41,0.23,0.44,0.89
171,45.42,-6.58,-8.05,0.26,0.45,0.90
172,44.61,-2.52,-7.45,0.24,0.45,0.90
173,44.63,0.41,-6.05,0.22,0.45,0.89
174,44.82,2.18,-5.05,0.20,0.45,0.88
175,44.85,0.21,-5.57,0.17,0.46,0.88
176,44.60,-2.40,-5.54,0.15,0.47,0.88
177,44.21,-8.14,-7.24,0.15,0.48,0.88
178,44.06,-11.71,-9.07,0.17,0.47,0.89
179,42.99,-13.77,-10.56,0.19,0.49,0.89
180,44.73,-14.35,-9.28,0.20,0.46,0.89
181,44.35,-13.83,-8.53,0.21,0.48,0.87
182,44.67,-10.64,-7.88,0.23,0.49,0.87
183,44.09,-7.02,-6.99,0.23,0.50,0.87
184,43.01,-4.08,-6.02,0.23,0.51,0.88
185,42.50,-3.19,-5.28,0.22,0.51,0.87
186,41.82,-4.09,-5.53,0.21,0.51,0.88
187,41.66,-6.15,-6.72,0.21,0.51,0.89
188,41.74,-8.46,-7.82,0.21,0.52,0.89
189,41.44,-8.64,-8.49,0.22,0.53,0.89
190,41.36,-8.17,-8.56,0.22,0.52,0.88
191,41.69,-6.15,-7.89,0.22,0.53,0.88
192,41.91,-3.34,-7.21,0.23,0.54,0.88
193,42.02,-0.23,-6.52,0.21,0.53,0.89
194,42.49,1.79,-4.99,0.21,0.54,0.87
195,42.05,2.41,-4.41,0.19,0.55,0.87
196,40.85,1.37,-5.31,0.19,0.55,0.87
197,40.47,0.79,-6.46,0.19,0.55,0.86
198,39.95,-0.92,-7.47,0.18,0.56,0.86
199,39.98,-4.55,-9.15,0.16,0.55,0.87
200,40.67,-5.60,-10.15,0.17,0.56,0.85
201,40.64,-3.73,-9.48,0.18,0.57,0.84
202,40.24,-1.08,-7.82,0.19,0.58,0.82
203,39.56,4.67,-5.98,0.20,0.59,0.82
204,39.28,9.76,-5.25,0.22,0.59,0.82
205,38.93,13.71,-5.60,0.22,0.59,0.83
206,37.89,16.81,-6.27,0.22,0.61,0.82
207,37.77,17.91,-6.32,0.21,0.61,0.82
208,37.63,18.70,-6.96,0.18,0.61,0.81
209,38.11,18.87,-5.98,0.17,0.61,0.81
210,39.31,19.45,-3.80,0.16,0.61,0.81
211,40.24,18.31,-2.38,0.15,0.61,0.82
212,41.80,14.82,-3.21,0.14,0.59,0.82
213,44.03,11.86,-3.39,0.15,0.59,0.82
214,44.85,10.44,-2.92,0.15,0.61,0.81
215,46.06,7.04,-3.80,0.14,0.60,0.82
216,46.79,4.43,-4.12,0.14,0.61,0.79
217,45.77,4.81,-3.60,0.14,0.64,0.79
218,44.41,4.29,-3.01,0.14,0.65,0.77
219,42.21,3.65,-3.34,0.15,0.67,0.78
220,39.30,4.76,-3.74,0.18,0.69,0.75
221,36.03,6.70,-3.80,0.19,0.71,0.74
222,33.28,8.44,-2.84,0.18,0.70,0.76
223,31.08,9.22,-2.43,0.16,0.69,0.76
224,29.74,8.69,-1.53,0.16,0.70,0.76
225,28.60,8.81,-0.55,0.15,0.68,0.77
226,28.05,5.45,-1.33,0.14,0.66,0.80
227,29.57,-0.05,-2.75,0.12,0.65,0.81
228,32.17,-5.95,-4.55,0.13,0.63,0.83
229,35.21,-10.70,-5.86,0.14,0.61,0.85
230,38.31,-12.34,-6.47,0.16,0.61,0.84
231,41.08,-11.39,-6.06,0.18,0.62,0.84
232,43.60,-11.95,-6.21,0.18,0.62,0.85
233,46.90,-11.07,-6.34,0.21,0.62,0.83
234,48.67,-8.43,-6.73,0.23,0.64,0.82
235,50.14,-6.26,-6.56,0.23,0.65,0.81
236,51.18,-2.73,-5.50,0.24,0.67,0.80
237,50.63,-0.23,-5.36,0.23,0.69,0.79
238,51.37,0.26,-5.31,0.20,0.69,0.78
239,51.50,-0.15,-5.97,0.19,0.70,0.75
240,51.36,-1.40,-6.81,0.16,0.72,0.74
241,51.77,-5.28,-7.28,0.13,0.73,0.71
242,50.75,-8.43,-7.71,0.13,0.75,0.70
243,49.53,-10.61,-7.94,0.14,0.75,0.70
244,48.15,-13.34,-7.40,0.13,0.75,0.70
245,46.58,-13.24,-6.14,0.16,0.75,0.68
246,45.45,-11.11,-4.64,0.18,0.74,0.70
247,44.52,-7.04,-2.55,0.21,0.75,0.69
248,43.80,-1.48,-1.24,0.23,0.75,0.69
249,42.53,1.54,-2.24,0.22,0.75,0.70
250,42.75,2.40,-2.34,0.20,0.76,0.68
251,42.49,3.10,-1.98,0.18,0.77,0.68
252,42.05,1.51,-2.52,0.15,0.77,0.67
253,42.27,-1.60,-2.27,0.12,0.77,0.66
254,42.50,-6.27,-3.25,0.12,0.76,0.67
255,43.33,-9.40,-3.95,0.13,0.75,0.67
256,43.65,-10.63,-4.23,0.14,0.75,0.65
257,44.64,-12.11,-4.78,0.15,0.74,0.66
258,45.45,-13.82,-5.82,0.15,0.75,0.65
259,45.82,-12.38,-5.89,0.17,0.76,0.63
260,45.88,-9.65,-4.55,0.18,0.78,0.60
261,44.20,-6.41,-2.75,0.19,0.80,0.60
262,41.89,-2.63,-1.08,0.18,0.82,0.60
263,39.82,-1.30,0.02,0.17,0.81,0.60
264,39.11,-0.38,0.20,0.17,0.81,0.60
265,38.81,0.26,0.64,0.16,0.79,0.61
266,38.87,-0.21,1.21,0.15,0.78,0.62
267,39.59,-1.74,1.22,0.14,0.78,0.63
268,39.86,-3.66,0.05,0.14,0.79,0.63
269,41.13,-4.85,-0.87,0.15,0.78,0.61
270,43.02,-5.39,-0.53,0.15,0.77,0.60
271,44.95,-6.95,-0.98,0.14,0.76,0.61
272,46.93,-7.57,-1.02,0.16,0.78,0.60
273,48.66,-6.46,-0.03,0.17,0.78,0.60
274,49.60,-4.58,1.18,0.19,0.80,0.58
275,49.16,-3.39,1.02,0.20,0.82,0.56
276,48.53,-1.15,1.47,0.21,0.84,0.56
277,47.36,3.05,2.84,0.21,0.85,0.54
278,46.35,5.22,2.81,0.20,0.83,0.55
279,45.83,6.60,2.21,0.19,0.84,0.53
280,44.17,6.32,2.00,0.17,0.86,0.51
281,42.66,5.39,1.45,0.16,0.86,0.49
282,40.56,3.48,1.05,0.14,0.87,0.48
283,38.31,0.46,0.76,0.14,0.87,0.49
284,36.79,-3.19,0.76,0.14,0.86,0.51
285,36.00,-6.06,0.98,0.17,0.87,0.50
286,34.35,-7.15,0.99,0.18,0.87,0.51
287,33.60,-5.27,1.15,0.21,0.87,0.51
288,33.94,-1.83,2.02,0.22,0.86,0.51
289,34.32,0.32,2.82,0.21,0.85,0.52
290,34.31,1.85,3.04,0.20,0.86,0.50
291,34.70,1.73,3.19,0.20,0.86,0.52
292,34.11,0.81,3.28,0.17,0.86,0.50
293,33.63,-1.05,3.60,0.18,0.88,0.50
294,33.73,-4.08,2.75,0.17,0.87,0.50
295,34.00,-6.09,1.39,0.16,0.86,0.50
296,34.82,-7.91,0.90,0.18,0.86,0.50
297,34.34,-8.64,0.46,0.20,0.89,0.48
298,33.13,-7.95,-0.09,0.22,0.91,0.45
299,33.30,-7.74,-1.25,0.24,0.90,0.46
300,29.76,-6.87,-2.00,0.25,0.93,0.46
301,25.68,-3.36,-1.69,0.25,0.95,0.43
302,23.15,0.78,-0.66,0.25,0.93,0.44
303,21.39,2.76,-0.56,0.23,0.90,0.47
304,20.66,2.47,-1.42,0.20,0.88,0.50
305,21.83,0.26,-1.79,0.18,0.85,0.50
306,23.92,-0.46,-1.51,0.16,0.83,0.51
307,26.06,-2.67,-1.18,0.14,0.83,0.52
308,27.89,-6.31,-2.00,0.13,0.85,0.50
309,28.24,-9.27,-2.34,0.15,0.88,0.49
310,27.86,-9.80,-1.83,0.16,0.90,0.48
311,26.60,-9.63,-1.05,0.17,0.91,0.47
312,25.94,-11.69,-2.49,0.17,0.90,0.48
313,25.54,-13.86,-3.16,0.18,0.89,0.47
314,25.27,-12.58,-1.65,0.20,0.90,0.49
315,24.98,-8.40,0.15,0.23,0.89,0.50
316,25.63,-4.56,1.56,0.23,0.86,0.51
317,26.50,-0.18,2.11,0.24,0.86,0.51
318,26.79,2.40,1.83,0.23,0.87,0.51
319,27.95,3.27,0.26,0.22,0.86,0.51
320,29.59,1.76,-1.77,0.18,0.84,0.52
321,33.08,-1.91,-2.24,0.15,0.84,0.53
322,35.48,-6.93,-2.66,0.14,0.85,0.51
323,37.27,-10.32,-3.80,0.15,0.87,0.49
324,37.33,-10.98,-4.08,0.17,0.90,0.46
325,35.69,-9.47,-3.44,0.19,0.94,0.44
326,32.37,-6.64,-3.62,0.20,0.96,0.41
327,28.60,-2.99,-2.66,0.20,0.97,0.39
328,24.99,0.31,-2.08,0.20,0.96,0.38
329,21.42,3.24,-0.79,0.19,0.96,0.38
330,18.37,6.31,1.08,0.18,0.95,0.39
331,16.89,6.34,1.92,0.15,0.92,0.42
332,17.54,4.93,2.02,0.16,0.89,0.43
333,18.63,3.11,2.56,0.15,0.87,0.44
334,20.70,1.50,3.04,0.15,0.85,0.45
335,24.38,0.60,2.82,0.15,0.84,0.48
336,28.52,-0.79,3.10,0.15,0.83,0.48
337,34.96,-4.43,2.61,0.12,0.82,0.49
338,41.28,-7.50,1.71,0.14,0.80,0.49
339,45.97,-6.72,2.73,0.16,0.86,0.43
340,50.81,-6.15,2.78,0.16,0.85,0.45
341,50.27,-1.91,5.82,0.19,0.91,0.36
342,48.85,5.54,8.31,0.21,0.96,0.33
343,44.09,8.63,8.02,0.20,1.01,0.30
344,36.53,9.16,6.31,0.20,1.05,0.26
345,28.90,9.73,6.24,0.19,1.07,0.25
346,24.29,9.33,5.92,0.17,1.02,0.28
347,21.77,4.98,4.08,0.14,0.98,0.32
348,19.82,-1.18,1.79,0.14,0.95,0.34
349,18.96,-5.04,1.22,0.15,0.94,0.35
350,20.67,-6.03,2.70,0.16,0.93,0.36
351,24.21,-5.65,4.41,0.18,0.90,0.36
352,25.68,-3.30,3.54,0.20,0.92,0.35
353,26.56,-2.81,3.63,0.19,0.93,0.36
354,27.53,-0.72,5.56,0.19,0.94,0.36
355,30.32,2.67,6.73,0.21,0.90,0.38
356,33.21,2.93,6.85,0.19,0.89,0.39
357,36.63,-0.03,6.06,0.20,0.88,0.39
358,38.08,-1.92,5.60,0.19,0.92,0.37
359,38.49,-4.47,6.99,0.19,0.95,0.36
360,37.65,-6.93,6.38,0.19,0.97,0.34
361,34.17,-7.91,4.41,0.22,1.00,0.30
362,29.82,-9.11,2.47,0.23,1.03,0.29
363,24.41,-10.58,1.27,0.23,1.04,0.27
364,19.80,-9.59,-0.08,0.25,1.03,0.28
365,16.18,-9.39,-1.34,0.25,1.01,0.30
366,14.49,-12.03,-4.11,0.23,0.97,0.33
367,15.31,-12.58,-4.53,0.27,0.94,0.36
368,18.20,-9.65,-4.72,0.29,0.90,0.39
369,23.82,-4.14,-4.00,0.32,0.85,0.42
370,29.19,-0.46,-4.09,0.30,0.84,0.43
371,34.12,2.79,-4.06,0.28,0.87,0.41
372,37.62,3.04,-4.58,0.24,0.88,0.39
373,40.31,1.51,-4.44,0.20,0.91,0.35
374,40.92,-0.64,-3.60,0.17,0.94,0.32
375,40.46,-3.97,-3.22,0.16,0.96,0.29
376,38.55,-7.13,-3.50,0.16,0.97,0.26
377,35.08,-9.60,-4.98,0.18,1.01,0.22
378,30.61,-9.18,-6.66,0.21,1.03,0.19
379,23.57,-6.78,-7.45,0.23,1.07,0.15
380,16.00,-4.96,-7.86,0.22,1.07,0.15
381,11.16,-3.36,-8.87,0.22,1.04,0.15
382,6.60,-1.50,-10.23,0.21,1.02,0.19
383,4.82,1.21,-9.36,0.20,0.99,0.20
384,5.97,1.82,-9.19,0.17,0.93,0.26
385,8.79,4.55,-8.32,0.20,0.89,0.29
386,14.02,6.27,-6.90,0.17,0.87,0.32
387,18.47,5.19,-5.16,0.15,0.87,0.31
388,21.30,3.25,-5.24,0.14,0.90,0.30
389,22.75,-2.09,-6.03,0.10,0.93,0.28
390,22.50,-6.69,-4.85,0.09,0.96,0.25
391,19.92,-9.24,-4.08,0.12,1.00,0.21
392,16.98,-11.36,-4.78,0.13,1.00,0.19
393,14.47,-11.42,-5.04,0.15,1.01,0.18
394,11.57,-11.01,-5.10,0.16,1.02,0.18
395,9.74,-12.29,-6.23,0.15,1.00,0.19
396,8.96,-12.64,-6.40,0.16,0.99,0.19
397,7.22,-11.21,-6.18,0.16,1.00,0.19
398,5.30,-9.79,-5.50,0.16,1.00,0.21
399,5.92,-8.52,-4.67,0.17,0.97,0.22
400,8.49,-5.69,-3.19,0.18,0.92,0.27
