,gyro_x,gyro_y,gyro_z,acce_x,acce_y,acce_z
0,11.24,-2.00,0.53,0.26,-0.10,1.07
1,11.77,-1.48,0.76,0.27,-0.10,1.07
2,12.23,-1.08,0.72,0.27,-0.10,1.09
3,12.87,-0.15,0.55,0.28,-0.09,1.08
4,13.53,0.90,0.53,0.27,-0.10,1.07
5,14.24,1.79,0.46,0.27,-0.09,1.07
6,14.67,1.77,0.67,0.28,-0.09,1.07
7,15.28,2.61,0.69,0.29,-0.09,1.07
8,15.89,2.52,0.32,0.29,-0.09,1.07
9,16.08,0.23,-0.23,0.30,-0.09,1.07
10,16.78,-1.13,-0.49,0.30,-0.09,1.09
11,17.31,-4.21,-0.53,0.29,-0.08,1.10
12,19.48,-6.67,-0.17,0.28,-0.07,1.13
13,21.11,-7.22,-0.26,0.29,-0.08,1.15
14,23.69,-4.37,0.06,0.30,-0.08,1.15
15,25.51,-5.22,0.58,0.26,-0.07,1.15
16,26.06,-4.29,1.07,0.27,-0.07,1.15
17,27.08,-0.95,0.81,0.28,-0.07,1.14
18,27.60,1.37,1.04,0.28,-0.07,1.12
19,26.82,2.93,0.61,0.29,-0.08,1.09
20,26.52,3.19,0.31,0.29,-0.08,1.08
21,25.63,0.43,0.21,0.29,-0.07,1.08
22,24.41,1.42,0.00,0.30,-0.07,1.06
23,25.01,5.91,-0.47,0.30,-0.08,1.08
24,26.18,7.45,-0.44,0.29,-0.07,1.08
25,26.17,8.85,-0.44,0.29,-0.06,1.06
26,26.17,9.30,-0.56,0.31,-0.06,1.05
27,25.88,7.10,-0.82,0.30,-0.05,1.08
28,25.51,6.53,-0.55,0.29,-0.04,1.08
29,25.11,4.61,-0.58,0.29,-0.04,1.10
30,25.48,4.26,-0.87,0.30,-0.03,1.09
31,25.86,3.25,-1.57,0.29,-0.03,1.11
32,26.99,4.17,-1.60,0.30,-0.03,1.12
33,28.18,3.51,-2.05,0.30,-0.02,1.14
34,28.85,4.53,-2.67,0.31,-0.02,1.12
35,29.13,8.61,-2.66,0.31,-0.03,1.12
36,30.17,9.31,-2.98,0.28,-0.02,1.12
37,30.09,7.63,-2.99,0.28,-0.02,1.11
38,29.85,9.82,-2.82,0.28,-0.02,1.09
39,29.83,11.18,-2.58,0.28,-0.03,1.10
40,29.76,12.09,-2.41,0.26,-0.02,1.08
41,29.54,11.44,-1.85,0.25,-0.01,1.08
42,29.71,10.89,-1.59,0.25,-0.02,1.09
43,29.19,10.24,-1.69,0.26,-0.00,1.07
44,28.56,11.15,-1.54,0.27,0.00,1.07
45,28.32,11.80,-1.51,0.26,0.00,1.07
46,27.88,11.79,-1.60,0.27,0.01,1.06
47,27.05,11.76,-1.63,0.26,0.01,1.07
48,27.47,11.01,-1.95,0.27,0.01,1.07
49,27.68,10.18,-1.91,0.26,0.02,1.08
50,28.40,9.02,-1.83,0.25,0.02,1.08
51,29.16,7.68,-1.82,0.25,0.02,1.09
52,30.99,7.74,-1.44,0.25,0.03,1.09
53,30.79,5.01,-1.27,0.25,0.04,1.09
54,30.35,4.02,-1.77,0.26,0.04,1.07
55,31.08,7.74,-1.53,0.26,0.03,1.08
56,31.42,8.75,-1.05,0.26,0.04,1.07
57,31.91,6.84,-1.22,0.25,0.05,1.06
58,32.29,5.66,-1.40,0.27,0.06,1.03
59,31.05,7.11,-1.44,0.27,0.06,1.04
60,32.41,10.03,-1.30,0.28,0.06,1.03
61,31.50,12.20,-1.45,0.26,0.06,1.03
62,31.24,11.83,-1.15,0.25,0.07,1.02
63,30.90,13.57,-0.56,0.25,0.07,1.02
64,29.82,14.81,-0.46,0.26,0.08,0.99
65,29.13,12.69,-0.44,0.26,0.09,1.00
66,28.60,10.87,-0.89,0.27,0.09,1.00
67,28.61,9.69,-1.22,0.27,0.10,1.02
68,29.16,8.66,-1.83,0.26,0.10,1.04
69,29.42,8.89,-1.82,0.25,0.10,1.03
70,31.18,7.98,-2.24,0.25,0.10,1.03
71,31.40,8.23,-2.40,0.25,0.11,1.02
72,31.88,10.31,-2.60,0.25,0.11,1.00
73,31.18,9.65,-2.58,0.23,0.12,1.01
74,31.08,10.23,-2.73,0.24,0.12,1.00
75,31.02,8.05,-2.49,0.23,0.12,0.99
76,30.81,7.31,-2.95,0.22,0.12,1.00
77,30.06,5.95,-2.75,0.22,0.13,0.99
78,29.59,5.02,-3.02,0.23,0.13,0.99
79,29.31,4.24,-3.04,0.22,0.13,0.99
80,28.78,1.82,-3.05,0.21,0.13,1.00
81,29.08,1.62,-2.75,0.21,0.14,0.99
82,28.78,0.52,-2.72,0.21,0.15,1.01
83,28.63,0.38,-2.31,0.21,0.14,1.00
84,28.56,0.40,-2.46,0.21,0.14,1.02
85,28.47,1.22,-2.41,0.21,0.15,1.03
86,27.65,3.10,-2.09,0.21,0.15,1.02
87,27.82,3.11,-1.71,0.20,0.15,1.03
88,27.22,3.59,-1.48,0.20,0.16,1.04
89,27.15,4.92,-1.15,0.21,0.16,1.04
90,27.44,5.51,-0.99,0.22,0.16,1.04
91,27.30,6.70,-1.08,0.22,0.16,1.03
92,27.89,6.17,-1.22,0.21,0.16,1.04
93,27.82,7.91,0.29,0.22,0.17,1.03
94,28.15,3.68,-0.70,0.20,0.17,1.02
95,26.69,2.82,0.08,0.23,0.19,1.02
96,26.43,5.34,-0.26,0.23,0.18,1.02
97,25.89,6.00,0.03,0.23,0.18,1.02
98,26.14,4.82,0.17,0.22,0.19,1.02
99,27.68,5.11,-0.09,0.22,0.19,1.01
100,28.38,3.63,-0.50,0.22,0.19,1.02
101,28.41,2.43,-0.35,0.23,0.20,1.02
102,28.99,1.85,-0.47,0.23,0.20,1.00
103,30.27,1.88,-0.58,0.25,0.21,1.01
104,29.51,2.67,-0.89,0.25,0.22,1.01
105,30.79,4.24,-0.92,0.25,0.21,0.99
106,29.42,3.91,-1.07,0.24,0.22,1.01
107,28.90,3.27,-1.50,0.23,0.22,1.01
108,31.25,3.69,-1.77,0.23,0.22,1.01
109,30.53,3.30,-1.65,0.22,0.22,1.00
110,30.47,2.61,-1.92,0.23,0.24,1.03
111,30.89,1.33,-2.11,0.23,0.23,1.00
112,30.89,1.68,-2.20,0.23,0.23,1.01
113,30.75,0.14,-2.47,0.23,0.23,1.01
114,31.73,-1.56,-2.82,0.22,0.23,1.02
115,30.50,-2.15,-2.67,0.22,0.23,1.02
116,32.72,-2.70,-2.81,0.22,0.24,1.03
117,31.37,-2.46,-2.66,0.21,0.25,1.04
118,32.63,-1.53,-2.60,0.21,0.25,1.04
119,32.20,0.47,-2.27,0.22,0.26,1.03
120,33.37,1.59,-2.34,0.22,0.25,1.02
121,32.96,0.84,-2.43,0.21,0.25,1.02
122,34.09,2.08,-2.55,0.22,0.26,1.01
123,34.02,3.80,-2.63,0.22,0.26,1.02
124,33.89,5.24,-2.56,0.22,0.26,1.00
125,33.42,5.24,-2.60,0.21,0.27,1.01
126,32.98,7.08,-2.55,0.21,0.27,1.00
127,32.40,7.08,-2.31,0.21,0.27,1.00
128,32.34,7.51,-1.80,0.21,0.27,1.00
129,32.12,8.37,-1.63,0.21,0.28,0.98
130,30.84,7.63,-1.45,0.21,0.29,0.98
131,29.83,7.76,-1.53,0.22,0.30,0.97
132,29.15,8.49,-1.25,0.21,0.29,0.98
133,28.78,9.45,-1.51,0.22,0.30,0.99
134,28.49,8.63,-1.65,0.21,0.31,1.00
135,29.53,9.44,-1.65,0.21,0.31,1.01
136,29.76,9.56,-1.98,0.22,0.31,1.00
137,31.04,10.41,-2.46,0.23,0.31,1.01
138,30.63,9.31,-2.63,0.22,0.32,1.01
139,31.89,8.60,-2.93,0.22,0.32,1.00
140,32.23,8.31,-2.69,0.21,0.32,0.99
141,33.22,7.33,-2.92,0.21,0.32,0.99
142,33.65,6.34,-2.75,0.21,0.33,0.98
143,33.54,5.45,-2.84,0.21,0.34,0.99
144,33.24,6.18,-2.79,0.21,0.34,0.99
145,32.75,6.82,-3.31,0.22,0.34,0.97
146,33.56,8.31,-3.18,0.22,0.33,0.97
147,33.21,9.18,-3.57,0.21,0.34,0.93
148,30.52,10.27,-3.31,0.20,0.35,0.96
149,30.53,9.94,-3.33,0.19,0.36,0.95
150,31.86,8.17,-3.40,0.19,0.35,0.96
151,29.08,7.68,-3.71,0.19,0.36,0.96
152,31.05,10.70,-3.47,0.20,0.35,0.93
153,29.89,8.02,-3.73,0.18,0.37,0.94
154,30.00,7.28,-3.77,0.18,0.36,0.95
155,28.52,7.65,-3.53,0.19,0.36,0.93
156,28.78,8.58,-3.18,0.18,0.37,0.93
157,27.54,8.14,-3.24,0.18,0.37,0.93
158,26.47,9.33,-2.55,0.17,0.38,0.93
159,25.28,4.85,-2.82,0.16,0.38,0.94
160,27.24,7.25,-2.14,0.18,0.38,0.93
161,24.46,6.24,-2.82,0.19,0.39,0.93
162,25.57,7.57,-2.55,0.18,0.38,0.94
163,24.53,6.06,-2.89,0.17,0.39,0.95
164,25.65,5.19,-2.75,0.18,0.39,0.95
165,23.19,3.76,-2.85,0.17,0.40,0.96
166,23.77,3.68,-2.29,0.19,0.40,0.93
167,24.09,2.73,-2.46,0.19,0.40,0.93
168,23.95,2.67,-2.61,0.19,0.41,0.95
169,23.37,2.98,-3.02,0.19,0.42,0.96
170,24.14,4.20,-2.90,0.19,0.41,0.95
171,23.11,4.09,-3.15,0.19,0.42,0.94
172,23.71,7.19,-3.13,0.20,0.42,0.93
173,24.06,7.85,-3.16,0.19,0.43,0.93
174,23.82,8.14,-3.40,0.19,0.43,0.93
175,23.04,7.24,-3.59,0.18,0.43,0.93
176,24.08,5.22,-3.62,0.18,0.44,0.93
177,22.73,3.31,-3.80,0.20,0.44,0.93
178,24.96,3.74,-4.06,0.20,0.43,0.91
179,23.50,1.13,-4.46,0.18,0.44,0.93
180,24.23,-0.73,-5.08,0.18,0.44,0.92
181,22.02,-1.39,-4.81,0.18,0.45,0.93
182,22.18,-1.74,-4.98,0.18,0.44,0.93
183,24.63,-2.02,-4.75,0.18,0.44,0.91
184,21.65,-3.83,-5.42,0.16,0.45,0.92
185,23.86,-1.54,-5.01,0.17,0.44,0.91
186,23.47,-2.81,-5.28,0.16,0.45,0.92
187,24.78,-2.02,-5.07,0.16,0.46,0.92
188,22.53,-4.20,-5.86,0.15,0.46,0.93
189,26.43,-1.56,-5.45,0.16,0.45,0.92
190,23.22,-4.58,-4.85,0.15,0.46,0.94
191,23.85,-2.24,-4.31,0.15,0.46,0.91
192,25.30,-2.18,-4.27,0.16,0.45,0.90
193,24.20,-2.63,-4.12,0.17,0.47,0.91
194,23.73,-1.71,-4.38,0.17,0.46,0.93
195,25.24,0.89,-3.89,0.18,0.46,0.92
196,22.58,-0.61,-4.17,0.16,0.48,0.92
197,23.10,0.81,-4.17,0.17,0.47,0.93
198,23.69,2.67,-4.09,0.17,0.48,0.92
199,22.93,0.70,-4.14,0.15,0.48,0.93
200,23.21,0.02,-4.34,0.14,0.48,0.93
201,24.18,-2.35,-3.98,0.14,0.48,0.92
202,25.76,-3.89,-3.82,0.15,0.48,0.93
203,26.17,-5.10,-3.98,0.15,0.48,0.93
204,26.58,-5.19,-3.92,0.17,0.48,0.94
205,26.95,-5.79,-4.03,0.18,0.48,0.93
206,27.30,-5.25,-4.15,0.17,0.49,0.93
207,27.36,-5.21,-4.12,0.17,0.49,0.93
208,27.07,-5.73,-3.92,0.16,0.50,0.92
209,27.68,-4.95,-3.73,0.18,0.50,0.91
210,29.02,-2.56,-3.25,0.18,0.50,0.90
211,26.89,-3.82,-3.71,0.17,0.51,0.91
212,28.27,0.18,-2.81,0.19,0.51,0.90
213,28.37,1.68,-3.21,0.18,0.51,0.90
214,28.43,2.31,-2.79,0.18,0.52,0.91
215,27.44,1.28,-3.57,0.19,0.52,0.91
216,28.08,1.15,-4.08,0.19,0.52,0.90
217,27.63,1.89,-4.41,0.20,0.53,0.91
218,27.94,0.90,-4.90,0.20,0.53,0.92
219,30.23,2.87,-5.97,0.18,0.54,0.94
220,29.53,2.84,-5.71,0.22,0.54,0.91
221,31.69,4.56,-6.43,0.20,0.53,0.91
222,31.11,3.71,-5.86,0.17,0.54,0.92
223,31.71,3.25,-5.79,0.16,0.53,0.90
224,32.52,2.82,-5.53,0.17,0.54,0.90
225,32.53,2.00,-5.85,0.17,0.55,0.90
226,31.63,1.25,-6.20,0.17,0.55,0.91
227,33.83,2.27,-5.91,0.19,0.54,0.87
228,33.08,2.20,-6.56,0.17,0.56,0.89
229,31.77,1.31,-6.78,0.16,0.56,0.89
230,33.77,2.44,-6.96,0.18,0.55,0.86
231,32.78,3.77,-6.73,0.16,0.56,0.87
232,33.88,5.36,-6.84,0.16,0.56,0.86
233,32.44,4.00,-7.19,0.16,0.56,0.86
234,33.57,3.98,-7.07,0.17,0.56,0.84
235,32.87,6.81,-6.92,0.16,0.57,0.86
236,32.23,8.81,-6.60,0.16,0.57,0.84
237,32.96,10.37,-6.41,0.15,0.57,0.85
238,31.51,11.44,-6.53,0.16,0.58,0.85
239,31.66,12.78,-6.31,0.15,0.58,0.85
240,31.11,13.27,-6.38,0.14,0.58,0.85
241,30.63,12.93,-6.63,0.14,0.59,0.85
242,29.92,12.61,-6.38,0.14,0.60,0.84
243,29.92,14.05,-6.00,0.14,0.61,0.83
244,29.44,13.36,-5.80,0.14,0.60,0.82
245,30.53,13.77,-5.47,0.14,0.60,0.81
246,29.50,13.60,-5.57,0.14,0.61,0.82
247,28.93,13.98,-5.18,0.13,0.62,0.81
248,28.82,14.85,-4.82,0.14,0.61,0.81
249,29.27,14.95,-4.84,0.14,0.61,0.81
250,27.34,13.04,-5.53,0.14,0.63,0.83
251,27.77,13.31,-5.62,0.14,0.62,0.81
252,27.74,13.94,-5.31,0.13,0.61,0.81
253,27.97,12.92,-5.27,0.13,0.62,0.79
254,28.26,11.76,-5.19,0.13,0.62,0.79
255,27.82,11.25,-5.27,0.13,0.62,0.80
256,28.63,12.06,-5.22,0.13,0.62,0.80
257,28.55,11.83,-5.13,0.13,0.62,0.79
258,27.21,11.40,-4.99,0.12,0.64,0.79
259,27.82,9.94,-5.22,0.13,0.63,0.77
260,28.56,10.46,-5.08,0.12,0.63,0.77
261,27.30,10.15,-5.39,0.12,0.64,0.77
262,26.70,10.76,-5.54,0.12,0.65,0.77
263,26.50,9.45,-5.73,0.12,0.65,0.78
264,27.66,9.39,-5.94,0.12,0.64,0.77
265,26.23,8.00,-6.00,0.09,0.65,0.76
266,25.92,6.31,-6.29,0.10,0.64,0.77
267,26.66,4.93,-6.38,0.10,0.65,0.77
268,27.83,5.62,-6.05,0.12,0.65,0.77
269,25.95,3.60,-6.69,0.11,0.66,0.80
270,25.05,3.45,-6.70,0.11,0.65,0.79
271,25.82,2.98,-7.01,0.12,0.65,0.78
272,25.01,1.33,-7.76,0.11,0.65,0.79
273,26.09,2.31,-7.71,0.10,0.66,0.79
274,26.87,2.02,-7.65,0.10,0.67,0.79
275,27.98,2.72,-7.56,0.10,0.67,0.77
276,29.11,4.35,-6.92,0.10,0.67,0.77
277,28.56,6.37,-5.89,0.10,0.67,0.76
278,27.44,8.12,-5.11,0.08,0.68,0.75
279,28.58,9.18,-4.61,0.09,0.67,0.73
280,27.47,7.18,-5.18,0.09,0.68,0.75
281,24.34,10.81,-4.24,0.11,0.69,0.73
282,25.18,13.25,-4.23,0.10,0.69,0.73
283,23.76,12.56,-4.37,0.09,0.69,0.73
284,22.18,12.63,-4.49,0.10,0.70,0.72
285,23.42,12.21,-4.89,0.10,0.69,0.72
286,21.74,11.36,-5.59,0.11,0.71,0.71
287,23.88,11.22,-6.02,0.10,0.70,0.71
288,22.66,9.65,-6.41,0.09,0.70,0.73
289,24.20,9.37,-6.37,0.08,0.71,0.72
290,23.82,7.48,-6.44,0.07,0.71,0.74
291,24.55,4.27,-6.96,0.06,0.70,0.74
292,24.96,2.14,-7.04,0.06,0.71,0.74
293,24.11,1.92,-6.82,0.07,0.72,0.75
294,25.16,1.21,-6.95,0.07,0.71,0.75
295,28.08,1.40,-6.95,0.06,0.71,0.76
296,27.88,-1.56,-7.11,0.04,0.72,0.75
297,29.24,-0.60,-5.91,0.05,0.72,0.73
298,30.00,1.10,-5.33,0.06,0.72,0.73
299,30.90,2.11,-4.75,0.06,0.73,0.72
300,30.32,3.05,-4.47,0.06,0.74,0.71
301,29.98,5.10,-3.83,0.08,0.74,0.72
302,29.08,7.48,-3.63,0.08,0.74,0.72
303,28.63,9.80,-3.50,0.09,0.75,0.74
304,28.23,10.60,-3.79,0.08,0.75,0.73
305,27.94,10.27,-4.09,0.09,0.74,0.73
306,28.06,10.31,-4.67,0.09,0.74,0.72
307,28.85,11.24,-4.95,0.09,0.75,0.73
308,28.64,11.74,-5.24,0.09,0.75,0.74
309,29.30,12.89,-5.24,0.10,0.74,0.74
310,31.34,14.11,-5.25,0.10,0.75,0.74
311,31.77,14.08,-5.37,0.09,0.76,0.76
312,32.23,13.80,-5.39,0.08,0.75,0.75
313,32.50,13.54,-5.21,0.09,0.75,0.73
314,33.76,12.06,-5.80,0.08,0.75,0.72
315,34.56,9.86,-6.32,0.08,0.75,0.74
316,35.54,7.68,-7.50,0.08,0.75,0.73
317,37.47,6.98,-8.00,0.07,0.75,0.74
318,37.91,5.33,-9.07,0.07,0.75,0.74
319,38.63,5.53,-9.37,0.07,0.76,0.73
320,39.45,6.12,-9.10,0.07,0.76,0.71
321,40.05,6.49,-9.11,0.06,0.76,0.70
322,42.34,8.00,-8.98,0.08,0.76,0.68
323,42.17,8.90,-8.70,0.06,0.77,0.68
324,42.79,10.29,-8.35,0.05,0.77,0.68
325,43.31,11.73,-8.35,0.05,0.77,0.68
326,43.94,12.18,-8.41,0.05,0.77,0.66
327,44.12,13.16,-8.24,0.05,0.77,0.65
328,43.63,13.39,-8.20,0.06,0.78,0.64
329,41.01,14.66,-7.65,0.05,0.79,0.64
330,41.73,16.23,-7.73,0.06,0.79,0.63
331,39.66,17.36,-7.66,0.06,0.79,0.63
332,39.86,18.90,-7.83,0.07,0.79,0.62
333,38.90,19.95,-8.41,0.06,0.79,0.63
334,39.07,19.76,-8.26,0.06,0.78,0.64
335,39.54,19.21,-8.63,0.06,0.78,0.63
336,40.09,17.91,-9.53,0.07,0.78,0.64
337,40.90,16.43,-10.47,0.07,0.77,0.64
338,44.05,17.39,-9.80,0.09,0.77,0.63
339,40.72,11.53,-13.30,0.05,0.77,0.68
340,44.44,11.36,-13.69,0.07,0.78,0.67
341,47.48,11.95,-14.03,0.06,0.78,0.66
342,45.48,9.48,-14.60,0.05,0.78,0.66
343,46.47,10.32,-14.49,0.04,0.77,0.60
344,49.18,10.38,-14.35,0.01,0.78,0.61
345,51.53,11.56,-14.44,0.02,0.79,0.58
346,50.49,11.76,-14.31,-0.00,0.79,0.58
347,50.79,14.20,-12.96,0.00,0.80,0.58
348,50.03,13.95,-12.96,0.00,0.79,0.55
349,51.44,16.02,-12.67,0.00,0.79,0.55
350,50.09,16.38,-12.37,-0.01,0.81,0.56
351,48.93,16.49,-12.21,-0.01,0.80,0.55
352,49.02,16.78,-12.26,-0.01,0.81,0.55
353,48.34,17.57,-12.12,-0.02,0.80,0.54
354,47.83,17.80,-11.63,-0.02,0.80,0.54
355,47.51,17.98,-11.85,-0.01,0.80,0.54
356,47.22,18.18,-11.60,-0.02,0.81,0.54
357,48.69,20.58,-10.89,-0.02,0.81,0.53
358,47.62,22.27,-10.05,-0.04,0.81,0.52
359,47.24,23.85,-9.10,-0.05,0.81,0.52
360,47.08,25.69,-8.15,-0.05,0.82,0.50
361,46.43,27.42,-7.42,-0.05,0.82,0.51
362,45.85,30.49,-6.03,-0.04,0.82,0.48
363,44.34,34.17,-4.20,-0.02,0.82,0.51
364,45.15,35.76,-4.82,-0.02,0.81,0.49
365,43.51,38.31,-3.79,-0.00,0.82,0.52
366,44.12,41.44,-3.97,0.02,0.82,0.51
367,44.05,42.69,-4.21,0.02,0.82,0.53
368,43.88,42.87,-4.40,0.03,0.81,0.54
369,45.83,42.93,-4.92,0.02,0.81,0.52
370,48.14,42.72,-5.47,0.02,0.81,0.52
371,50.69,42.02,-5.89,0.02,0.81,0.50
372,52.70,43.07,-6.43,0.02,0.82,0.49
373,52.44,44.23,-6.43,0.02,0.83,0.47
374,54.56,45.95,-7.15,0.02,0.83,0.44
375,55.65,49.24,-6.50,0.02,0.84,0.43
376,55.15,50.26,-6.37,-0.00,0.84,0.40
377,55.04,51.94,-5.94,-0.00,0.86,0.37
378,54.60,53.98,-5.48,-0.03,0.87,0.33
379,53.15,54.32,-5.31,-0.05,0.88,0.30
380,51.69,53.79,-4.70,-0.05,0.89,0.26
381,48.79,52.21,-5.05,-0.06,0.90,0.25
382,47.51,50.87,-5.11,-0.06,0.90,0.24
383,43.91,49.74,-5.76,-0.06,0.91,0.25
384,42.23,46.61,-6.75,-0.05,0.90,0.23
385,41.16,43.73,-7.48,-0.03,0.91,0.22
386,39.05,42.96,-7.71,-0.04,0.93,0.21
387,37.31,41.76,-8.02,-0.05,0.93,0.19
388,36.93,38.93,-8.38,-0.08,0.94,0.18
389,35.34,36.23,-8.87,-0.10,0.96,0.17
390,34.41,34.93,-8.11,-0.10,0.96,0.13
391,32.64,33.40,-7.56,-0.12,0.98,0.11
392,29.18,32.64,-6.99,-0.15,1.00,0.11
393,31.15,29.42,-6.73,-0.13,0.99,0.07
394,27.76,25.50,-7.91,-0.13,1.00,0.06
395,24.53,25.16,-8.40,-0.12,1.01,0.04
396,24.32,26.63,-7.25,-0.11,1.03,0.03
397,20.50,20.75,-9.51,-0.13,1.03,0.04
398,20.17,19.13,-10.38,-0.12,1.03,0.01
399,12.78,16.61,-11.53,-0.13,1.04,-0.03
400,11.51,16.82,-11.25,-0.14,1.03,-0.04
401,7.30,11.51,-12.05,-0.16,1.04,-0.02
402,0.00,7.28,-13.56,-0.20,1.08,0.02
403,-2.63,5.98,-13.08,-0.18,1.06,-0.00
404,-7.53,2.73,-13.73,-0.20,1.05,0.01
405,-25.68,-5.79,-20.03,-0.20,1.04,-0.01
406,-31.51,13.47,-20.11,-0.09,1.05,0.01
407,-31.97,20.90,-7.53,-0.18,1.04,0.13
408,-25.88,-40.50,-27.13,-0.35,0.98,0.21
409,-21.28,-37.24,-27.71,-0.17,1.02,0.09
410,-0.99,7.80,-5.54,-0.11,1.07,-0.03
411,8.49,6.24,-4.35,-0.25,1.03,0.06
412,6.73,-8.23,-9.11,-0.25,1.06,0.08
413,1.71,-7.02,-8.03,-0.20,1.05,0.04
414,-0.50,-3.27,-5.31,-0.19,1.05,0.07
415,-0.92,-11.25,-6.69,-0.22,1.03,0.12
416,-10.12,-16.37,-8.84,-0.20,1.05,0.13
417,-17.47,-13.88,-9.24,-0.19,1.04,0.12
418,-20.93,-11.44,-8.61,-0.19,1.03,0.14
419,-23.91,-15.65,-10.24,-0.21,1.02,0.15
420,-23.63,-15.11,-10.00,-0.20,1.01,0.15
421,-21.63,-13.63,-9.19,-0.19,1.01,0.16
422,-18.00,-13.71,-8.73,-0.20,0.99,0.20
423,-16.53,-12.05,-7.69,-0.20,0.99,0.21
424,-16.24,-8.72,-5.44,-0.21,0.99,0.23
425,-15.28,-8.85,-4.58,-0.22,0.98,0.24
426,-14.90,-12.20,-4.75,-0.22,0.97,0.26
427,-15.13,-15.22,-4.98,-0.23,0.97,0.27
428,-15.74,-15.66,-4.18,-0.21,0.97,0.28
429,-16.31,-14.26,-2.89,-0.21,0.97,0.29
430,-16.66,-13.97,-2.52,-0.20,0.96,0.30
431,-16.72,-12.52,-1.30,-0.19,0.96,0.30
432,-15.50,-11.18,-0.20,-0.18,0.95,0.32
433,-15.31,-11.82,-0.11,-0.19,0.95,0.35
434,-14.61,-12.03,0.43,-0.18,0.94,0.35
435,-14.56,-12.43,0.08,-0.17,0.94,0.35
436,-14.82,-10.72,0.20,-0.17,0.95,0.36
437,-14.58,-6.70,1.44,-0.16,0.95,0.36
438,-14.81,-4.69,2.32,-0.17,0.94,0.37
439,-14.95,-4.78,2.92,-0.18,0.94,0.37
440,-15.60,-6.90,1.85,-0.19,0.94,0.39
441,-13.94,-6.50,2.96,-0.18,0.93,0.37
442,-14.85,-6.43,3.08,-0.18,0.94,0.37
443,-13.66,-6.69,3.05,-0.17,0.93,0.36
444,-13.21,-5.62,3.47,-0.17,0.93,0.36
445,-12.70,-4.12,3.97,-0.16,0.93,0.37
446,-12.43,-4.34,3.86,-0.16,0.93,0.37
447,-11.68,-5.10,3.53,-0.15,0.93,0.38
448,-11.16,-5.27,3.76,-0.16,0.92,0.40
449,-11.01,-6.55,3.39,-0.17,0.91,0.40
450,-10.37,-6.55,3.66,-0.17,0.92,0.41
451,-9.60,-6.93,3.57,-0.16,0.92,0.41
452,-10.43,-6.64,3.88,-0.15,0.92,0.39
453,-9.18,-6.12,3.85,-0.15,0.92,0.39
454,-9.24,-4.73,4.31,-0.15,0.92,0.38
455,-9.45,-3.85,4.53,-0.15,0.92,0.39
456,-8.98,-2.08,5.01,-0.15,0.92,0.39
457,-9.04,-3.11,4.93,-0.15,0.92,0.37
458,-9.16,-3.79,4.79,-0.15,0.92,0.38
459,-9.89,-3.62,4.56,-0.14,0.92,0.38
460,-10.14,-5.30,3.62,-0.15,0.92,0.39
461,-10.79,-5.62,3.40,-0.14,0.92,0.40
462,-11.68,-5.33,3.27,-0.13,0.92,0.39
463,-11.95,-5.65,2.61,-0.14,0.92,0.40
464,-13.02,-6.11,2.50,-0.14,0.92,0.40
465,-13.69,-6.67,2.41,-0.14,0.92,0.39
