,gyro_x,gyro_y,gyro_z,acce_x,acce_y,acce_z
0,-0.81,3.95,0.01,-0.01,1.12,"31.21[0m
"
1,14.03,-0.95,3.53,0.00,-0.01,1.11
2,14.11,-0.70,3.02,0.00,-0.00,1.12
3,14.02,-0.29,2.53,0.01,-0.01,1.11
4,13.97,0.40,2.09,0.00,-0.00,1.11
5,12.43,2.63,1.51,0.01,0.01,1.11
6,13.22,2.46,1.63,-0.02,-0.01,1.11
7,14.56,1.76,2.26,-0.02,-0.01,1.13
8,14.23,3.08,2.34,-0.01,0.01,1.11
9,15.01,2.50,2.18,-0.02,0.01,1.11
10,15.60,3.30,2.92,-0.02,0.01,1.11
11,16.27,4.24,3.07,-0.01,0.01,1.10
12,16.90,5.31,2.58,-0.01,0.00,1.10
13,17.24,5.01,2.82,-0.03,0.01,1.09
14,17.79,5.08,3.02,-0.04,0.02,1.09
15,17.65,4.29,3.10,-0.03,0.03,1.07
16,17.08,4.40,3.48,-0.04,0.04,1.06
17,16.49,4.93,4.20,-0.03,0.05,1.05
18,15.97,5.36,4.34,-0.03,0.04,1.06
19,16.08,7.45,4.14,-0.00,0.04,1.08
20,13.88,9.44,4.52,-0.02,0.08,1.02
21,14.29,8.64,5.07,-0.04,0.05,1.06
22,14.84,4.89,6.06,-0.05,0.05,1.06
23,14.29,4.58,5.57,-0.03,0.06,1.06
24,13.80,5.15,4.76,-0.02,0.05,1.05
25,14.44,5.13,4.53,-0.01,0.04,1.06
26,14.84,6.73,4.90,-0.02,0.05,1.06
27,16.06,7.86,5.16,-0.01,0.04,1.07
28,16.60,8.18,4.93,-0.01,0.04,1.06
29,16.78,8.34,4.82,-0.02,0.05,1.05
30,16.37,7.69,4.67,-0.03,0.07,1.04
31,15.77,7.33,4.63,-0.04,0.07,1.04
32,15.24,6.35,5.28,-0.04,0.07,1.04
33,14.31,7.10,5.76,-0.03,0.08,1.03
34,13.33,7.69,6.06,-0.03,0.08,1.02
35,12.66,8.61,6.35,-0.03,0.08,1.04
36,11.95,8.82,6.38,-0.02,0.08,1.04
37,12.06,9.22,6.70,-0.02,0.08,1.05
38,11.53,8.02,6.17,-0.02,0.08,1.05
39,11.86,6.02,6.31,-0.03,0.07,1.07
40,12.09,4.49,5.97,-0.03,0.07,1.08
41,12.84,4.17,5.86,-0.03,0.06,1.09
42,14.05,4.53,5.57,-0.03,0.06,1.10
43,15.02,6.00,5.51,-0.02,0.06,1.10
44,16.26,6.90,5.74,-0.01,0.07,1.10
45,16.79,8.09,6.05,-0.02,0.07,1.09
46,17.27,9.30,6.24,-0.02,0.07,1.09
47,16.96,10.72,6.31,-0.01,0.07,1.09
48,16.47,11.27,5.98,-0.02,0.07,1.10
49,16.40,10.89,5.71,-0.03,0.07,1.11
50,16.75,10.26,5.54,-0.05,0.07,1.11
51,17.34,8.79,5.48,-0.05,0.06,1.13
52,18.23,7.74,5.86,-0.05,0.07,1.13
53,18.61,7.88,6.12,-0.06,0.06,1.13
54,19.60,8.85,6.53,-0.05,0.07,1.14
55,20.53,10.81,7.37,-0.04,0.06,1.15
56,21.66,12.61,7.53,-0.04,0.07,1.15
57,22.67,14.29,8.05,-0.04,0.07,1.15
58,23.48,16.06,8.29,-0.04,0.07,1.14
59,24.49,17.07,8.41,-0.04,0.07,1.14
60,25.27,16.82,7.85,-0.05,0.07,1.14
61,26.20,15.66,7.18,-0.06,0.08,1.14
62,27.27,13.37,6.73,-0.07,0.08,1.12
63,28.18,11.04,6.09,-0.08,0.09,1.13
64,29.25,9.37,5.94,-0.08,0.09,1.13
65,30.00,8.90,5.97,-0.06,0.10,1.12
66,31.04,10.27,5.98,-0.06,0.10,1.11
67,31.44,11.71,6.67,-0.06,0.11,1.10
68,31.66,13.25,7.18,-0.06,0.12,1.09
69,31.98,14.18,7.56,-0.06,0.13,1.08
70,32.06,14.52,8.21,-0.07,0.13,1.08
71,32.27,14.43,7.97,-0.07,0.13,1.08
72,32.29,13.92,8.38,-0.08,0.14,1.07
73,32.44,13.28,8.35,-0.08,0.14,1.06
74,32.64,13.04,8.50,-0.08,0.15,1.06
75,33.27,13.27,8.23,-0.08,0.14,1.07
76,33.65,13.21,8.05,-0.08,0.15,1.06
77,34.11,13.19,8.23,-0.09,0.15,1.06
78,34.14,12.56,8.17,-0.09,0.16,1.05
79,34.52,12.27,8.58,-0.09,0.16,1.05
80,34.53,12.02,8.53,-0.09,0.17,1.05
81,35.34,12.03,8.72,-0.09,0.17,1.04
82,35.33,11.62,8.70,-0.09,0.18,1.04
83,34.87,11.25,8.79,-0.10,0.19,1.02
84,34.58,10.76,9.28,-0.09,0.19,1.03
85,34.41,11.21,9.48,-0.09,0.20,1.04
86,34.55,11.22,9.59,-0.09,0.20,1.04
87,34.47,11.04,9.97,-0.09,0.20,1.03
88,33.97,11.28,9.79,-0.08,0.20,1.03
89,33.85,11.27,9.79,-0.09,0.21,1.03
90,33.94,11.54,9.89,-0.09,0.21,1.03
91,33.98,11.04,9.74,-0.10,0.21,1.03
92,34.17,10.49,9.56,-0.09,0.22,1.02
93,34.31,10.31,9.45,-0.09,0.22,1.03
94,34.35,9.40,8.99,-0.10,0.23,1.02
95,34.60,8.06,8.93,-0.10,0.23,1.02
96,34.17,7.04,8.95,-0.10,0.23,1.02
97,34.46,6.61,8.90,-0.10,0.24,1.02
98,35.89,6.67,8.76,-0.10,0.23,1.02
99,36.11,5.57,8.21,-0.12,0.21,1.04
100,34.46,6.61,8.67,-0.09,0.24,1.02
101,33.98,6.52,9.34,-0.11,0.24,1.01
102,33.80,7.59,9.47,-0.11,0.24,1.01
103,34.03,7.18,9.44,-0.11,0.25,1.02
104,34.05,6.92,9.48,-0.11,0.25,1.02
105,33.97,5.79,9.76,-0.13,0.27,1.02
106,34.06,4.89,9.92,-0.12,0.28,1.03
107,34.67,3.95,9.82,-0.12,0.27,1.03
108,35.25,3.54,10.03,-0.12,0.28,1.03
109,35.54,3.47,10.49,-0.11,0.28,1.02
110,35.73,3.82,10.85,-0.11,0.28,1.03
111,35.45,3.82,10.81,-0.10,0.29,1.01
112,35.37,5.02,11.24,-0.11,0.29,1.01
113,35.24,5.27,11.65,-0.11,0.30,1.02
114,35.82,5.77,12.17,-0.11,0.29,1.01
115,37.05,6.34,12.34,-0.11,0.30,1.02
116,36.82,5.74,12.44,-0.10,0.30,1.01
117,37.44,5.25,12.55,-0.11,0.31,1.01
118,37.25,4.53,12.21,-0.10,0.30,1.00
119,37.53,4.49,11.88,-0.09,0.31,1.00
120,37.24,4.23,11.88,-0.09,0.32,1.00
121,37.19,4.02,11.82,-0.10,0.32,0.99
122,37.27,3.60,11.62,-0.10,0.32,1.00
123,37.68,4.15,11.31,-0.09,0.32,1.00
124,38.23,4.31,11.22,-0.09,0.32,1.01
125,38.31,4.40,11.24,-0.10,0.33,1.00
126,38.50,5.73,11.54,-0.10,0.34,1.00
127,38.85,5.92,11.73,-0.11,0.34,0.99
128,39.27,6.20,11.57,-0.10,0.35,0.99
129,39.68,5.83,11.66,-0.11,0.35,0.97
130,39.98,5.88,12.08,-0.11,0.35,0.97
131,40.09,6.35,12.21,-0.10,0.36,0.96
132,39.71,6.31,12.09,-0.10,0.36,0.93
133,39.42,5.86,11.89,-0.09,0.36,0.95
134,38.99,6.06,11.45,-0.09,0.36,0.94
135,38.70,6.44,11.47,-0.10,0.38,0.93
136,38.26,6.02,11.45,-0.10,0.38,0.92
137,37.40,5.60,11.82,-0.11,0.39,0.92
138,36.60,5.19,12.17,-0.11,0.41,0.92
139,35.76,5.02,12.46,-0.11,0.41,0.93
140,34.99,5.27,12.50,-0.10,0.42,0.92
141,34.29,5.30,12.89,-0.11,0.43,0.93
142,33.74,5.13,12.90,-0.10,0.43,0.93
143,33.80,5.24,13.31,-0.10,0.44,0.94
144,33.39,5.42,13.65,-0.09,0.45,0.94
145,33.30,5.47,13.34,-0.09,0.46,0.95
146,33.02,4.46,13.24,-0.10,0.48,0.94
147,32.60,3.83,13.18,-0.10,0.48,0.94
148,32.60,2.46,12.82,-0.10,0.49,0.95
149,32.47,0.60,12.52,-0.10,0.49,0.95
150,32.20,-0.66,12.38,-0.10,0.50,0.95
151,31.92,-1.97,12.49,-0.10,0.50,0.94
152,31.89,-2.52,12.55,-0.09,0.51,0.96
153,32.20,-1.44,12.24,-0.09,0.51,0.98
154,32.12,-1.80,12.44,-0.09,0.50,0.96
155,31.02,-1.19,13.04,-0.09,0.51,0.98
156,30.70,-1.04,13.39,-0.08,0.51,0.97
157,30.70,-0.47,13.21,-0.08,0.51,0.97
158,31.13,-0.03,13.19,-0.08,0.51,0.98
159,31.28,0.67,13.42,-0.08,0.52,0.98
160,31.74,1.30,13.36,-0.08,0.51,0.98
161,32.27,0.92,13.30,-0.09,0.52,0.97
162,32.75,0.50,13.45,-0.09,0.52,0.97
163,33.07,-0.81,13.24,-0.09,0.52,0.97
164,33.73,-1.91,13.39,-0.09,0.51,0.98
165,34.43,-2.20,13.25,-0.09,0.52,0.98
166,35.48,-2.46,13.47,-0.08,0.51,0.97
167,37.66,-1.82,13.22,-0.07,0.52,0.96
168,36.98,-2.24,13.28,-0.08,0.53,0.94
169,37.05,-1.63,13.37,-0.07,0.52,0.93
170,36.99,-1.79,13.45,-0.07,0.53,0.94
171,36.95,-1.68,13.47,-0.07,0.53,0.93
172,36.90,-0.73,13.56,-0.06,0.54,0.91
173,36.53,-0.47,13.11,-0.07,0.53,0.91
174,36.44,-0.50,13.39,-0.06,0.54,0.91
175,36.69,-0.49,13.18,-0.06,0.53,0.90
176,36.99,-1.01,12.84,-0.07,0.54,0.91
177,37.37,-1.05,12.34,-0.08,0.53,0.90
178,38.12,-0.95,12.43,-0.07,0.54,0.90
179,38.98,-1.44,12.60,-0.08,0.54,0.90
180,39.37,-1.69,12.70,-0.07,0.54,0.89
181,39.86,-1.97,12.75,-0.08,0.55,0.89
182,40.03,-1.92,13.18,-0.07,0.55,0.88
183,40.02,-1.59,13.47,-0.06,0.56,0.88
184,39.82,-0.98,13.74,-0.06,0.56,0.86
185,39.71,-0.15,14.02,-0.07,0.57,0.87
186,39.40,0.49,14.40,-0.06,0.57,0.87
187,39.36,1.33,14.44,-0.05,0.57,0.86
188,39.37,2.38,14.31,-0.05,0.57,0.86
189,39.56,2.14,13.91,-0.05,0.57,0.86
190,39.56,1.30,13.40,-0.07,0.58,0.85
191,39.40,-0.31,13.22,-0.07,0.58,0.85
192,39.24,-1.47,13.11,-0.07,0.58,0.85
193,39.60,-1.98,13.18,-0.06,0.58,0.85
194,39.89,-0.84,13.71,-0.05,0.59,0.84
195,40.35,0.15,13.79,-0.04,0.58,0.85
196,40.66,0.53,13.66,-0.04,0.59,0.83
197,41.25,1.65,13.39,-0.04,0.59,0.84
198,42.15,2.56,13.69,-0.04,0.60,0.84
199,42.67,4.11,14.08,-0.03,0.60,0.84
200,43.07,5.21,14.06,-0.04,0.61,0.84
201,43.25,5.62,13.88,-0.04,0.62,0.82
202,43.22,4.34,13.42,-0.05,0.63,0.82
203,43.21,2.66,13.04,-0.07,0.63,0.82
204,43.19,-0.11,12.78,-0.07,0.63,0.81
205,43.16,-2.29,12.73,-0.07,0.63,0.80
206,43.22,-4.11,12.72,-0.07,0.64,0.80
207,43.54,-4.85,12.70,-0.05,0.64,0.79
208,43.69,-4.09,12.82,-0.03,0.65,0.79
209,43.48,-3.34,12.93,-0.04,0.65,0.78
210,43.36,-1.86,13.15,-0.03,0.66,0.78
211,43.44,-0.08,13.37,-0.02,0.66,0.77
212,43.73,1.21,13.73,-0.03,0.66,0.78
213,43.42,1.50,14.17,-0.04,0.66,0.78
214,43.57,0.90,14.03,-0.03,0.66,0.78
215,43.95,-0.20,13.86,-0.04,0.66,0.79
216,44.49,-1.25,13.88,-0.04,0.66,0.78
217,44.84,-2.47,13.71,-0.03,0.66,0.77
218,45.37,-2.69,13.27,-0.02,0.67,0.77
219,45.71,-1.51,13.07,-0.01,0.67,0.77
220,46.55,-0.75,12.73,-0.01,0.68,0.77
221,47.04,0.06,13.07,-0.01,0.68,0.76
222,47.27,1.08,12.99,-0.01,0.69,0.75
223,47.63,1.86,13.07,-0.00,0.70,0.75
224,47.85,2.50,13.27,-0.01,0.70,0.73
225,47.95,2.93,13.59,-0.01,0.71,0.72
226,47.77,4.46,13.82,0.01,0.72,0.72
227,47.08,5.10,13.76,0.00,0.72,0.71
228,46.87,5.79,13.45,0.01,0.73,0.71
229,46.61,5.80,12.85,-0.00,0.73,0.69
230,46.50,4.66,12.31,-0.01,0.73,0.69
231,46.02,2.75,12.34,-0.01,0.74,0.71
232,45.59,1.51,11.88,-0.01,0.74,0.69
233,45.44,0.75,11.63,-0.01,0.74,0.70
234,45.68,0.49,11.56,-0.00,0.74,0.69
235,45.86,1.44,11.39,0.00,0.75,0.70
236,46.27,2.58,11.10,0.00,0.75,0.69
237,46.64,3.68,11.21,0.01,0.75,0.68
238,47.05,4.23,11.31,0.01,0.75,0.68
239,47.34,4.78,11.18,-0.01,0.76,0.67
240,47.37,4.95,11.56,0.00,0.77,0.67
241,47.21,5.11,11.30,0.00,0.77,0.66
242,46.95,5.13,10.98,0.00,0.77,0.65
243,46.84,4.98,10.84,0.00,0.78,0.65
244,46.78,5.24,10.69,0.01,0.78,0.64
245,46.72,5.60,10.87,-0.00,0.78,0.64
246,46.44,5.27,10.37,-0.00,0.79,0.63
247,46.32,4.02,9.95,-0.01,0.79,0.62
248,46.46,1.86,9.76,-0.02,0.79,0.63
249,46.32,0.60,10.17,-0.02,0.79,0.63
250,46.12,0.32,10.38,-0.02,0.80,0.62
251,45.98,0.67,10.37,0.00,0.80,0.61
252,46.06,1.36,10.75,0.01,0.80,0.61
253,46.12,3.36,11.02,0.02,0.81,0.61
254,46.31,5.59,11.31,0.02,0.81,0.61
255,46.31,7.47,11.19,0.02,0.81,0.60
256,46.49,8.37,11.10,0.01,0.82,0.60
257,46.50,8.31,11.54,0.00,0.82,0.58
258,46.63,8.18,11.73,0.01,0.82,0.59
259,46.43,7.36,12.03,0.01,0.82,0.57
260,46.53,6.64,11.57,0.01,0.83,0.57
261,46.63,5.56,11.01,0.01,0.83,0.57
262,46.26,4.08,10.76,0.00,0.83,0.56
263,45.92,2.99,10.40,0.01,0.83,0.55
264,45.92,1.65,9.59,-0.00,0.83,0.54
265,45.83,1.79,10.06,0.00,0.84,0.55
266,45.66,1.54,10.41,-0.00,0.84,0.55
267,45.68,1.83,10.89,0.01,0.84,0.54
268,46.00,3.31,10.93,0.02,0.84,0.54
269,46.27,4.55,10.99,0.02,0.84,0.53
270,46.41,5.42,11.40,0.02,0.84,0.54
271,46.52,6.06,12.00,0.02,0.85,0.52
272,46.76,6.64,12.27,0.02,0.85,0.51
273,46.78,7.28,12.15,0.03,0.85,0.51
274,46.81,7.30,11.71,0.02,0.85,0.49
275,46.21,6.23,11.44,0.01,0.85,0.49
276,46.05,4.99,11.50,0.01,0.86,0.49
277,45.91,4.20,11.40,0.00,0.86,0.48
278,45.33,3.44,10.96,0.02,0.87,0.48
279,44.69,2.35,10.47,0.02,0.87,0.48
280,44.31,1.63,10.15,0.01,0.87,0.48
281,44.52,0.85,10.12,0.01,0.86,0.49
282,45.05,0.78,10.20,0.02,0.87,0.48
283,45.44,1.60,10.46,0.03,0.87,0.48
284,45.73,2.03,10.44,0.03,0.87,0.47
285,46.15,2.40,10.76,0.03,0.87,0.46
286,46.55,3.05,10.61,0.03,0.87,0.45
287,46.76,3.73,10.46,0.02,0.88,0.45
288,46.47,4.49,10.55,0.03,0.88,0.45
289,45.83,5.01,10.76,0.03,0.89,0.44
290,45.82,5.86,11.27,0.03,0.89,0.44
291,45.59,5.98,11.33,0.02,0.89,0.43
292,44.70,6.44,11.54,0.02,0.89,0.42
293,44.52,6.06,11.65,0.02,0.90,0.43
294,44.79,5.48,12.27,0.01,0.90,0.43
295,45.16,5.63,12.69,0.01,0.89,0.42
296,45.45,4.90,12.76,0.02,0.89,0.42
297,45.86,4.27,12.75,0.01,0.88,0.42
298,46.93,3.98,12.98,0.01,0.88,0.41
299,47.82,3.22,13.16,0.01,0.88,0.42
300,48.63,2.84,13.01,0.01,0.89,0.41
301,49.62,2.12,12.99,0.02,0.90,0.41
302,50.50,1.89,13.42,0.02,0.90,0.40
303,51.34,1.95,13.22,0.03,0.90,0.39
304,51.57,1.95,13.30,0.03,0.92,0.38
305,51.71,2.00,13.33,0.04,0.91,0.38
306,52.09,1.83,13.28,0.04,0.92,0.36
307,52.23,1.89,13.73,0.04,0.92,0.36
308,52.14,2.00,13.76,0.05,0.92,0.36
309,52.09,2.17,13.82,0.04,0.93,0.34
310,51.62,1.71,13.73,0.04,0.93,0.34
311,52.08,1.19,13.60,0.04,0.93,0.33
312,51.59,1.86,13.94,0.05,0.94,0.33
313,50.64,1.82,14.00,0.05,0.94,0.33
314,50.93,1.30,13.91,0.05,0.94,0.33
315,51.53,1.94,14.26,0.06,0.94,0.33
316,51.85,3.01,14.79,0.06,0.94,0.32
317,52.14,3.91,14.63,0.06,0.94,0.32
318,53.05,4.17,14.29,0.06,0.94,0.31
319,52.31,1.31,13.94,0.04,0.93,0.31
320,52.02,4.90,14.52,0.07,0.95,0.30
321,53.02,4.85,15.71,0.05,0.94,0.28
322,53.27,3.21,15.65,0.05,0.95,0.29
323,53.48,3.79,15.39,0.07,0.95,0.28
324,53.76,3.92,15.60,0.08,0.94,0.29
325,54.12,5.04,15.85,0.08,0.94,0.27
326,54.55,5.18,15.74,0.08,0.94,0.28
327,54.40,5.74,15.79,0.08,0.94,0.27
328,54.32,5.22,16.05,0.07,0.95,0.25
329,54.27,4.47,16.12,0.08,0.95,0.26
330,55.50,3.44,16.23,0.07,0.95,0.26
331,56.00,3.01,16.08,0.08,0.95,0.25
332,56.21,2.58,15.82,0.08,0.95,0.24
333,56.66,2.18,15.40,0.09,0.94,0.24
334,58.20,2.08,14.87,0.09,0.95,0.24
335,58.96,2.60,14.79,0.10,0.94,0.23
336,60.32,2.49,14.47,0.10,0.94,0.23
337,61.47,3.47,14.23,0.10,0.94,0.23
338,62.40,3.28,14.09,0.10,0.95,0.21
339,63.15,3.57,14.08,0.09,0.95,0.21
340,64.00,3.60,14.53,0.09,0.95,0.19
341,64.11,3.02,14.55,0.09,0.95,0.18
342,64.90,2.38,14.67,0.09,0.95,0.18
343,65.02,2.03,14.24,0.09,0.95,0.17
344,65.76,1.62,14.93,0.08,0.95,0.15
345,65.95,1.74,14.87,0.09,0.95,0.15
346,66.67,1.74,15.04,0.10,0.95,0.16
347,66.37,1.16,14.99,0.09,0.95,0.14
348,67.74,0.84,15.63,0.09,0.96,0.14
349,67.39,2.56,15.74,0.10,0.96,0.13
350,67.16,1.36,15.89,0.09,0.96,0.12
351,66.93,1.82,15.57,0.12,0.96,0.12
352,66.70,1.50,16.00,0.11,0.96,0.09
353,69.79,0.60,16.03,0.11,0.94,0.12
354,71.13,1.37,15.45,0.12,0.94,0.10
355,72.43,2.40,15.69,0.12,0.94,0.10
356,73.25,2.90,15.74,0.12,0.94,0.09
357,74.37,2.52,15.73,0.11,0.93,0.08
358,75.62,1.92,15.73,0.11,0.94,0.09
359,76.75,1.73,15.80,0.12,0.93,0.08
360,77.69,1.53,15.74,0.12,0.93,0.06
361,78.69,0.15,15.77,0.12,0.93,0.05
362,79.51,-0.56,15.60,0.12,0.93,0.05
363,80.72,-1.74,15.76,0.11,0.93,0.05
364,80.99,-2.27,15.33,0.12,0.92,0.03
365,81.66,-2.56,15.33,0.13,0.93,0.03
366,83.18,-2.64,15.08,0.13,0.92,0.02
367,84.69,-3.02,15.16,0.13,0.90,0.01
368,86.29,-2.63,15.25,0.13,0.90,0.00
369,87.77,-1.76,14.69,0.14,0.89,-0.02
370,88.82,-1.39,14.60,0.14,0.90,-0.03
371,90.17,-0.92,14.79,0.14,0.88,-0.03
372,91.59,0.11,14.72,0.14,0.89,-0.05
373,93.07,0.92,14.98,0.14,0.88,-0.06
374,93.63,1.36,14.82,0.13,0.88,-0.08
375,94.40,1.42,14.50,0.12,0.86,-0.10
376,95.74,1.07,15.36,0.12,0.86,-0.09
377,97.01,0.75,15.40,0.11,0.85,-0.12
378,98.23,0.72,15.86,0.12,0.85,-0.11
379,99.40,0.93,16.17,0.12,0.84,-0.13
380,100.27,0.29,16.72,0.12,0.83,-0.14
381,101.66,-0.20,16.78,0.12,0.82,-0.14
382,103.40,-0.76,17.13,0.11,0.80,-0.15
383,105.13,-1.39,17.40,0.11,0.79,-0.15
384,106.82,-1.80,17.45,0.12,0.78,-0.16
385,108.85,-1.05,18.14,0.12,0.78,-0.16
386,110.26,-0.93,18.56,0.11,0.77,-0.17
387,111.77,-1.13,19.27,0.11,0.76,-0.19
388,112.32,-1.63,19.76,0.10,0.75,-0.19
389,113.94,-2.72,20.00,0.11,0.73,-0.18
390,115.01,-2.11,20.26,0.11,0.74,-0.19
391,115.15,-1.27,20.26,0.11,0.72,-0.20
392,115.36,-2.03,19.40,0.10,0.71,-0.19
393,117.25,-0.55,19.89,0.11,0.69,-0.18
394,119.48,0.18,21.08,0.09,0.68,-0.17
395,121.86,1.98,22.11,0.09,0.66,-0.17
396,124.23,4.58,23.04,0.10,0.64,-0.17
397,127.69,6.70,24.43,0.09,0.62,-0.16
398,132.78,9.76,26.50,0.11,0.59,-0.16
399,139.28,12.75,29.51,0.11,0.57,-0.19
400,146.35,15.74,32.44,0.13,0.55,-0.20
