,gyro_x,gyro_y,gyro_z,acce_x,acce_y,acce_z
0,6.72,-1.73,2.99,-0.28,-0.25,1.01
1,6.53,-1.11,3.10,-0.27,-0.24,0.99
2,6.55,0.14,3.31,-0.28,-0.24,0.98
3,6.41,0.50,3.97,-0.29,-0.24,1.00
4,6.47,0.26,4.02,-0.30,-0.24,0.99
5,6.63,-0.96,4.06,-0.30,-0.24,1.00
6,6.89,-2.32,4.08,-0.30,-0.24,1.01
7,6.82,-2.64,4.17,-0.29,-0.23,1.00
8,6.67,-3.27,3.85,-0.29,-0.24,0.99
9,6.67,-3.28,3.60,-0.29,-0.23,1.00
10,6.46,-3.08,3.69,-0.28,-0.23,1.00
11,6.96,-1.76,4.29,-0.28,-0.23,1.00
12,7.30,-1.63,4.47,-0.29,-0.23,1.00
13,7.63,-1.77,4.84,-0.29,-0.23,1.01
14,8.24,-0.95,5.59,-0.28,-0.22,1.01
15,8.52,0.17,5.83,-0.28,-0.22,1.00
16,8.60,1.28,5.68,-0.27,-0.22,1.00
17,8.40,2.35,5.39,-0.27,-0.22,0.99
18,8.26,3.82,4.92,-0.26,-0.22,0.99
19,8.69,3.27,4.31,-0.28,-0.22,1.01
20,8.76,2.81,3.74,-0.28,-0.22,1.03
21,9.59,3.77,3.57,-0.28,-0.23,1.03
22,10.35,3.98,2.98,-0.29,-0.24,1.03
23,10.53,3.51,2.61,-0.30,-0.24,1.04
24,10.93,5.53,2.87,-0.30,-0.24,1.03
25,11.07,7.07,3.34,-0.31,-0.24,1.04
26,11.66,5.85,3.63,-0.35,-0.25,1.06
27,12.61,4.78,4.64,-0.37,-0.25,1.05
28,13.54,4.03,4.90,-0.38,-0.27,1.07
29,15.30,3.56,7.60,-0.38,-0.27,1.10
30,17.85,3.62,8.95,-0.40,-0.28,1.12
31,20.05,5.68,11.76,-0.37,-0.28,1.15
32,24.20,7.44,13.48,-0.34,-0.30,1.18
33,28.05,10.58,14.72,-0.34,-0.29,1.19
34,30.89,12.44,16.03,-0.35,-0.28,1.17
35,32.34,14.06,16.58,-0.35,-0.26,1.14
36,31.94,14.08,16.72,-0.37,-0.24,1.11
37,32.14,10.89,16.96,-0.38,-0.24,1.11
38,32.26,7.18,16.50,-0.39,-0.24,1.12
39,36.32,6.58,18.37,-0.41,-0.25,1.10
40,34.69,5.71,18.89,-0.39,-0.22,1.10
41,35.50,6.08,18.82,-0.39,-0.22,1.09
42,35.11,6.40,19.91,-0.38,-0.21,1.09
43,35.71,6.24,20.72,-0.39,-0.20,1.09
44,36.63,6.26,21.76,-0.40,-0.21,1.10
45,38.14,5.28,22.38,-0.40,-0.21,1.10
46,39.95,3.53,23.15,-0.41,-0.21,1.10
47,40.89,1.33,23.65,-0.41,-0.20,1.10
48,41.80,0.34,24.23,-0.41,-0.19,1.09
49,42.35,-0.78,24.87,-0.40,-0.18,1.08
50,42.32,-2.93,24.76,-0.39,-0.17,1.08
51,42.32,-4.64,25.15,-0.38,-0.17,1.07
52,42.35,-3.11,26.35,-0.36,-0.16,1.06
53,43.34,-1.85,27.62,-0.35,-0.16,1.08
54,46.52,0.55,29.05,-0.33,-0.17,1.09
55,46.18,3.13,29.54,-0.32,-0.15,1.09
56,47.69,6.18,30.08,-0.29,-0.15,1.08
57,50.37,9.18,29.69,-0.28,-0.14,1.09
58,52.82,8.17,29.19,-0.30,-0.14,1.08
59,51.86,10.92,28.72,-0.28,-0.11,1.06
60,53.57,10.63,28.85,-0.29,-0.12,1.04
61,51.83,6.82,27.24,-0.31,-0.09,1.05
62,52.61,6.12,26.84,-0.32,-0.08,1.03
63,53.79,7.31,27.69,-0.31,-0.07,1.01
64,54.03,6.08,27.60,-0.31,-0.05,1.01
65,53.37,5.63,27.57,-0.31,-0.04,0.99
66,52.34,6.95,27.94,-0.29,-0.03,0.97
67,51.30,7.95,27.98,-0.29,-0.01,0.96
68,50.05,7.62,27.56,-0.30,-0.01,0.95
69,48.96,8.08,27.76,-0.30,-0.01,0.96
70,48.49,8.15,27.79,-0.29,-0.01,0.97
71,48.66,5.62,26.21,-0.28,-0.01,1.00
72,50.23,5.89,26.08,-0.26,-0.01,1.00
73,50.90,7.69,26.44,-0.27,-0.00,0.99
74,51.50,7.57,26.02,-0.28,0.01,1.00
75,51.82,6.44,25.45,-0.27,0.02,0.98
76,52.18,5.48,24.87,-0.26,0.02,0.98
77,52.09,5.08,23.74,-0.26,0.04,0.97
78,51.36,4.63,22.61,-0.27,0.05,0.95
79,50.38,3.50,21.25,-0.27,0.06,0.95
80,49.36,3.42,20.49,-0.28,0.08,0.93
81,48.50,5.02,20.47,-0.28,0.08,0.91
82,47.68,6.72,20.87,-0.28,0.10,0.91
83,46.37,8.82,20.89,-0.28,0.10,0.90
84,45.21,10.44,20.60,-0.28,0.11,0.89
85,44.70,9.98,20.47,-0.30,0.10,0.91
86,43.97,8.92,20.26,-0.31,0.12,0.91
87,43.91,7.91,19.97,-0.31,0.13,0.90
88,43.40,6.87,19.63,-0.32,0.13,0.91
89,42.95,6.78,19.47,-0.31,0.14,0.91
90,42.40,6.02,19.25,-0.32,0.15,0.89
91,41.36,4.47,18.96,-0.33,0.15,0.91
92,40.70,3.60,19.07,-0.33,0.16,0.91
93,39.97,2.84,18.96,-0.31,0.16,0.90
94,38.90,1.71,18.60,-0.31,0.17,0.90
95,37.47,1.74,18.17,-0.31,0.17,0.90
96,36.23,1.19,18.08,-0.30,0.18,0.89
97,35.62,0.47,17.45,-0.29,0.17,0.92
98,35.36,1.18,17.07,-0.29,0.17,0.94
99,35.45,3.04,16.96,-0.28,0.18,0.92
100,36.47,7.27,17.31,-0.28,0.19,0.92
101,35.88,6.93,17.07,-0.28,0.17,0.88
102,34.87,7.33,16.29,-0.31,0.20,0.89
103,33.98,6.27,15.79,-0.32,0.21,0.90
104,33.94,4.41,15.07,-0.33,0.22,0.90
105,33.45,2.64,14.72,-0.33,0.21,0.89
106,33.42,2.50,14.93,-0.33,0.22,0.90
107,33.51,1.86,15.01,-0.34,0.23,0.90
108,32.56,2.23,15.28,-0.33,0.23,0.90
109,31.82,1.59,15.60,-0.34,0.23,0.91
110,31.45,0.60,15.66,-0.32,0.23,0.92
111,31.50,1.13,15.51,-0.31,0.23,0.94
112,31.60,1.45,14.90,-0.31,0.22,0.94
113,31.24,1.22,14.03,-0.32,0.22,0.95
114,31.89,2.47,14.84,-0.31,0.23,0.94
115,31.60,3.30,14.34,-0.31,0.23,0.94
116,31.54,3.48,14.21,-0.31,0.25,0.94
117,30.96,2.41,13.39,-0.33,0.25,0.94
118,30.98,1.07,12.69,-0.34,0.25,0.95
119,31.94,-0.63,12.82,-0.35,0.24,0.96
120,31.45,-0.56,13.18,-0.35,0.25,0.97
121,33.50,0.55,14.99,-0.36,0.24,0.98
122,35.19,2.41,16.46,-0.35,0.26,0.96
123,36.90,3.02,17.31,-0.35,0.25,0.95
124,36.56,0.02,16.55,-0.35,0.25,0.96
125,36.44,-0.03,16.29,-0.34,0.26,0.95
126,36.18,0.09,16.27,-0.34,0.27,0.94
127,35.24,-0.55,16.12,-0.35,0.28,0.95
128,34.96,-1.56,15.92,-0.34,0.28,0.95
129,35.37,-0.52,16.53,-0.35,0.29,0.95
130,35.56,-0.02,16.92,-0.34,0.28,0.96
131,36.78,0.03,16.96,-0.34,0.28,0.97
132,37.47,0.76,17.51,-0.33,0.30,0.97
133,37.92,1.21,18.12,-0.35,0.29,0.96
134,38.40,1.24,19.02,-0.35,0.29,0.98
135,39.31,1.60,19.33,-0.35,0.29,0.97
136,39.98,1.18,19.48,-0.33,0.29,0.97
137,39.97,0.17,19.45,-0.35,0.31,0.97
138,40.50,-1.68,19.10,-0.35,0.31,0.97
139,40.23,-4.20,18.20,-0.35,0.31,0.96
140,41.68,-4.64,17.98,-0.34,0.31,0.95
141,41.51,-5.63,17.92,-0.34,0.32,0.96
142,41.59,-4.56,18.18,-0.34,0.33,0.95
143,41.63,-1.56,18.82,-0.33,0.33,0.94
144,41.37,1.02,19.54,-0.34,0.34,0.95
145,41.60,2.81,20.55,-0.35,0.35,0.95
146,42.99,3.91,21.88,-0.36,0.35,0.98
147,43.57,3.48,22.37,-0.36,0.35,0.97
148,43.40,3.89,23.15,-0.36,0.36,0.98
149,44.46,3.07,23.57,-0.37,0.35,0.99
150,45.86,1.40,24.15,-0.38,0.35,0.97
151,47.47,-0.17,24.35,-0.38,0.35,0.97
152,47.98,-3.51,24.27,-0.39,0.36,0.98
153,48.52,-6.02,24.56,-0.39,0.36,0.98
154,49.69,-7.44,24.81,-0.38,0.36,0.99
155,50.23,-7.83,25.24,-0.38,0.37,1.00
156,51.63,-6.06,26.31,-0.37,0.36,0.99
157,52.98,-5.28,27.07,-0.35,0.37,0.99
158,53.66,-0.24,28.29,-0.33,0.38,1.00
159,51.71,2.84,28.49,-0.34,0.38,1.00
160,50.82,1.04,28.11,-0.38,0.40,1.00
161,51.51,1.50,30.81,-0.36,0.39,0.98
162,53.40,4.76,32.11,-0.38,0.40,0.99
163,53.11,3.13,33.91,-0.33,0.42,0.97
164,57.15,8.15,34.93,-0.32,0.43,0.95
165,59.02,6.37,34.75,-0.31,0.44,0.95
166,60.05,9.15,34.93,-0.31,0.44,0.92
167,61.25,9.19,34.46,-0.31,0.46,0.89
168,60.55,7.31,33.59,-0.33,0.47,0.89
169,59.82,4.96,32.69,-0.33,0.48,0.88
170,60.60,3.65,33.15,-0.34,0.47,0.88
171,60.02,1.56,33.53,-0.34,0.49,0.88
172,60.49,0.73,34.20,-0.31,0.49,0.88
173,61.39,2.29,35.27,-0.29,0.50,0.86
174,61.50,4.00,36.55,-0.29,0.51,0.86
175,62.11,3.83,36.69,-0.27,0.52,0.86
176,62.17,3.27,35.98,-0.25,0.52,0.86
177,67.18,8.99,36.98,-0.25,0.51,0.86
178,66.55,5.82,36.87,-0.25,0.52,0.85
179,63.89,1.47,34.61,-0.26,0.54,0.85
180,64.56,-1.92,33.13,-0.25,0.55,0.83
181,65.44,-0.78,33.31,-0.25,0.54,0.84
182,65.45,-1.73,32.82,-0.24,0.55,0.83
183,63.85,0.31,32.58,-0.23,0.57,0.83
184,63.98,2.92,32.92,-0.22,0.59,0.79
185,63.18,4.93,32.96,-0.21,0.59,0.78
186,62.09,5.98,33.11,-0.22,0.60,0.78
187,61.98,5.97,33.30,-0.23,0.60,0.77
188,61.02,5.89,32.89,-0.22,0.60,0.75
189,61.11,7.13,33.16,-0.22,0.61,0.74
190,60.76,6.90,33.21,-0.23,0.62,0.76
191,61.18,4.61,32.61,-0.24,0.62,0.75
192,61.42,4.37,33.33,-0.24,0.62,0.74
193,61.76,5.89,34.44,-0.22,0.63,0.74
194,61.88,5.30,33.95,-0.21,0.63,0.75
195,60.81,2.52,32.63,-0.23,0.64,0.75
196,61.94,1.48,32.75,-0.23,0.64,0.72
197,60.67,0.21,32.35,-0.23,0.65,0.71
198,61.51,-1.19,32.17,-0.23,0.66,0.72
199,62.55,-2.29,32.37,-0.22,0.67,0.71
200,61.98,-1.79,32.24,-0.19,0.69,0.69
201,62.06,0.85,32.61,-0.17,0.69,0.67
202,61.73,2.79,32.24,-0.15,0.70,0.67
203,61.15,3.25,31.37,-0.15,0.71,0.65
204,60.26,1.44,29.94,-0.16,0.72,0.65
205,59.33,0.31,28.78,-0.15,0.73,0.62
206,58.60,0.21,28.41,-0.15,0.73,0.61
207,57.88,-1.10,27.54,-0.14,0.74,0.61
208,57.59,-2.15,26.38,-0.13,0.74,0.60
209,57.60,-0.49,26.27,-0.11,0.74,0.59
210,57.27,-0.14,25.94,-0.13,0.75,0.59
211,57.69,-1.56,25.28,-0.15,0.73,0.60
212,56.52,-4.03,25.19,-0.16,0.75,0.59
213,55.98,-4.27,25.62,-0.16,0.75,0.57
214,54.66,-5.98,25.86,-0.15,0.76,0.56
215,53.77,-7.21,25.28,-0.14,0.77,0.56
216,52.87,-6.18,25.18,-0.12,0.78,0.56
217,52.69,-5.54,24.61,-0.10,0.78,0.57
218,52.73,-4.41,23.59,-0.10,0.78,0.55
219,51.02,-4.44,22.50,-0.10,0.80,0.53
220,50.55,-5.08,21.50,-0.11,0.79,0.52
221,48.67,-6.03,20.81,-0.13,0.81,0.52
222,47.95,-7.40,20.69,-0.13,0.81,0.51
223,47.22,-9.21,20.55,-0.13,0.79,0.53
224,47.11,-8.29,20.99,-0.11,0.80,0.52
225,46.98,-6.96,20.92,-0.10,0.80,0.53
226,46.35,-5.82,20.66,-0.10,0.80,0.53
227,46.82,-5.56,20.76,-0.11,0.80,0.54
228,47.19,-5.37,20.61,-0.10,0.80,0.54
229,47.45,-4.06,20.15,-0.10,0.81,0.53
230,47.07,-3.37,19.60,-0.10,0.81,0.52
231,46.75,-3.39,19.19,-0.10,0.82,0.51
232,44.55,-3.53,19.01,-0.12,0.83,0.49
233,44.11,-3.85,19.16,-0.12,0.84,0.49
234,42.87,-3.82,19.05,-0.13,0.84,0.49
235,42.12,-3.10,19.62,-0.12,0.84,0.47
236,42.15,-2.96,20.23,-0.12,0.85,0.48
237,41.33,-3.82,19.98,-0.12,0.84,0.49
238,41.53,-6.44,19.56,-0.13,0.84,0.50
239,42.05,-7.53,19.36,-0.12,0.84,0.50
240,43.31,-8.05,19.71,-0.11,0.83,0.52
241,43.86,-8.20,20.00,-0.10,0.83,0.52
242,44.64,-5.22,21.30,-0.10,0.83,0.51
243,45.68,-1.44,22.96,-0.08,0.84,0.50
244,46.44,-0.06,23.42,-0.07,0.85,0.51
245,46.78,1.27,23.69,-0.07,0.86,0.50
246,46.72,1.98,23.15,-0.07,0.87,0.47
247,45.40,1.10,21.80,-0.07,0.88,0.45
248,44.21,-0.17,20.90,-0.09,0.88,0.45
249,42.24,-1.89,19.74,-0.08,0.89,0.44
250,41.83,-3.92,18.50,-0.08,0.88,0.44
251,42.14,-6.50,17.47,-0.08,0.88,0.46
252,42.41,-7.73,16.67,-0.09,0.87,0.47
253,41.62,-7.73,16.63,-0.10,0.89,0.49
254,43.37,-5.19,17.98,-0.09,0.88,0.46
255,43.33,-3.71,18.55,-0.09,0.88,0.47
256,44.32,-4.26,18.98,-0.09,0.88,0.46
257,44.79,-5.16,19.02,-0.08,0.88,0.46
258,44.76,-5.60,19.21,-0.08,0.89,0.46
259,45.19,-5.45,19.36,-0.08,0.89,0.45
260,45.88,-5.01,19.50,-0.07,0.89,0.44
261,46.02,-4.46,19.65,-0.07,0.89,0.43
262,45.34,-3.74,19.79,-0.08,0.90,0.41
263,45.30,-3.76,20.05,-0.07,0.91,0.41
264,45.48,-3.53,19.98,-0.05,0.91,0.41
265,46.20,-2.58,20.03,-0.05,0.90,0.41
266,46.23,-2.72,19.86,-0.07,0.90,0.40
267,46.79,-2.41,20.27,-0.08,0.90,0.40
268,47.31,-2.81,20.70,-0.08,0.90,0.40
269,48.15,-4.66,20.50,-0.09,0.90,0.40
270,47.71,-5.94,20.56,-0.09,0.91,0.39
271,48.55,-5.91,21.60,-0.09,0.91,0.39
272,48.72,-5.22,22.49,-0.08,0.92,0.39
273,49.15,-3.85,23.73,-0.07,0.91,0.37
274,49.73,-3.63,24.82,-0.07,0.92,0.38
275,50.24,-2.47,26.17,-0.07,0.93,0.38
276,50.20,-0.66,27.10,-0.05,0.93,0.35
277,50.61,-2.55,26.34,-0.06,0.94,0.33
278,48.61,-4.82,25.07,-0.06,0.94,0.32
279,48.31,-4.18,25.62,-0.05,0.95,0.31
280,48.02,-3.89,25.62,-0.05,0.95,0.30
281,47.15,-5.65,24.93,-0.06,0.93,0.32
282,48.15,-6.14,24.81,-0.06,0.92,0.32
283,49.62,-4.73,25.62,-0.05,0.92,0.32
284,50.00,-3.48,26.41,-0.06,0.93,0.32
285,49.74,-2.49,27.56,-0.06,0.94,0.31
286,49.94,-1.25,28.56,-0.05,0.95,0.28
287,49.69,-0.56,29.73,-0.07,0.95,0.26
288,48.09,-2.15,30.17,-0.07,0.95,0.25
289,47.85,-3.27,30.84,-0.05,0.95,0.24
290,46.93,-3.10,31.39,-0.04,0.95,0.24
291,46.85,-4.50,31.18,-0.03,0.95,0.24
292,47.31,-5.82,31.25,-0.02,0.94,0.24
293,47.50,-5.33,31.85,-0.00,0.95,0.22
294,47.68,-4.34,31.88,0.01,0.95,0.22
295,47.42,-5.07,31.39,0.02,0.95,0.23
296,46.37,-3.68,31.11,0.04,0.96,0.20
297,46.27,-2.64,31.11,0.04,0.95,0.20
298,44.96,-3.76,30.52,0.03,0.96,0.20
299,44.32,-3.85,30.49,0.03,0.96,0.20
300,44.56,-3.08,30.79,0.04,0.96,0.20
301,43.63,-3.50,31.01,0.04,0.97,0.19
302,44.90,-3.92,31.36,0.03,0.94,0.21
303,44.61,-5.01,31.19,0.04,0.95,0.22
304,46.17,-3.86,31.45,0.06,0.93,0.21
305,46.18,-2.49,31.59,0.06,0.95,0.20
306,47.44,-1.37,32.29,0.06,0.95,0.19
307,48.18,-0.27,33.31,0.07,0.94,0.19
308,48.95,-0.17,33.88,0.08,0.94,0.19
309,49.27,-0.84,33.60,0.07,0.95,0.17
310,48.43,-1.36,33.59,0.08,0.96,0.16
311,48.50,-3.83,32.99,0.07,0.95,0.16
312,49.50,-3.65,33.77,0.09,0.95,0.16
313,49.91,-2.12,34.35,0.09,0.95,0.13
314,50.15,-2.43,34.18,0.09,0.96,0.14
315,49.88,-2.41,34.02,0.11,0.96,0.13
316,50.41,-1.01,34.66,0.11,0.96,0.11
317,50.47,-2.32,34.02,0.11,0.96,0.10
318,50.09,-3.83,32.95,0.11,0.96,0.10
319,49.37,-3.31,32.63,0.12,0.96,0.08
320,49.21,-2.34,32.99,0.13,0.97,0.07
321,49.10,-3.22,32.14,0.14,0.97,0.08
322,49.05,-4.20,31.73,0.14,0.97,0.07
323,48.50,-4.08,31.24,0.14,0.96,0.05
324,48.26,-4.35,31.48,0.12,0.96,0.06
325,48.38,-6.72,31.36,0.12,0.96,0.06
326,48.85,-7.42,32.15,0.13,0.95,0.06
327,49.83,-6.99,33.27,0.14,0.95,0.07
328,50.75,-7.31,33.56,0.14,0.94,0.07
329,50.40,-7.89,33.79,0.15,0.94,0.06
330,51.69,-7.19,34.29,0.15,0.93,0.05
331,52.27,-8.66,34.99,0.13,0.94,0.05
332,52.89,-11.04,35.13,0.14,0.93,0.03
333,51.05,-14.05,34.78,0.14,0.95,0.01
334,48.29,-19.18,33.44,0.13,0.95,0.02
335,50.70,-19.39,35.50,0.14,0.94,-0.00
336,51.88,-20.95,36.44,0.15,0.94,0.00
337,53.10,-22.66,36.55,0.16,0.94,-0.01
338,53.02,-22.60,37.22,0.18,0.94,-0.02
339,54.27,-20.44,37.97,0.20,0.93,-0.04
340,54.24,-19.77,38.31,0.20,0.93,-0.04
341,54.66,-18.50,38.44,0.20,0.94,-0.06
342,53.97,-15.31,39.13,0.22,0.94,-0.08
343,52.92,-13.02,39.11,0.23,0.95,-0.10
344,50.75,-11.30,39.21,0.23,0.95,-0.11
345,51.97,-8.72,38.93,0.25,0.94,-0.10
346,51.02,-5.95,39.05,0.25,0.94,-0.10
347,48.78,-4.98,38.37,0.24,0.94,-0.10
348,49.02,-6.87,37.65,0.24,0.93,-0.09
349,48.96,-7.54,37.01,0.26,0.94,-0.10
350,49.50,-9.10,35.62,0.25,0.93,-0.12
351,49.30,-9.28,35.27,0.25,0.93,-0.11
352,49.63,-10.37,34.70,0.26,0.93,-0.11
353,48.76,-9.92,34.41,0.27,0.93,-0.13
354,48.11,-10.05,33.92,0.27,0.93,-0.16
355,47.02,-9.21,33.60,0.28,0.93,-0.17
356,46.56,-9.59,32.78,0.27,0.93,-0.16
357,44.84,-9.88,31.71,0.28,0.93,-0.15
358,45.91,-10.20,31.37,0.28,0.93,-0.17
359,44.21,-11.94,29.83,0.27,0.93,-0.16
360,42.99,-10.43,30.03,0.28,0.94,-0.18
361,43.27,-10.84,29.80,0.27,0.94,-0.18
362,40.76,-13.37,28.32,0.26,0.94,-0.18
363,40.17,-15.71,28.40,0.26,0.92,-0.18
364,42.23,-17.45,28.32,0.25,0.91,-0.18
365,43.01,-18.26,28.05,0.26,0.91,-0.19
366,41.80,-19.37,28.09,0.24,0.91,-0.20
367,40.02,-23.89,27.60,0.23,0.91,-0.19
368,40.93,-23.91,28.63,0.25,0.89,-0.20
369,40.03,-22.38,29.30,0.27,0.89,-0.23
370,37.37,-21.31,30.05,0.26,0.89,-0.21
371,37.98,-21.59,31.59,0.28,0.89,-0.21
372,37.88,-21.28,31.79,0.30,0.88,-0.21
373,39.86,-20.38,32.52,0.30,0.87,-0.21
374,40.26,-17.50,33.45,0.30,0.87,-0.25
375,37.88,-14.50,33.59,0.31,0.88,-0.28
376,36.84,-17.80,33.16,0.28,0.89,-0.32
377,34.95,-21.16,33.10,0.29,0.90,-0.32
378,32.23,-22.29,32.14,0.30,0.90,-0.33
379,31.68,-24.99,31.68,0.29,0.90,-0.33
380,31.40,-27.10,31.18,0.31,0.90,-0.34
381,31.11,-27.98,31.10,0.32,0.88,-0.33
382,30.75,-26.63,31.36,0.33,0.87,-0.32
383,29.28,-27.22,30.98,0.34,0.88,-0.33
384,28.40,-26.84,31.22,0.35,0.87,-0.32
385,28.63,-26.93,30.66,0.36,0.84,-0.30
386,30.53,-26.58,30.89,0.36,0.82,-0.29
387,30.93,-23.91,31.91,0.37,0.83,-0.29
388,30.35,-19.86,33.31,0.37,0.83,-0.31
389,29.44,-17.50,33.40,0.38,0.83,-0.33
390,28.15,-16.79,32.85,0.38,0.84,-0.34
391,26.40,-16.24,33.02,0.39,0.85,-0.34
392,24.55,-16.85,31.50,0.40,0.85,-0.36
393,24.49,-17.98,29.94,0.40,0.85,-0.35
394,26.11,-17.47,29.92,0.41,0.83,-0.35
395,26.69,-16.95,30.09,0.42,0.84,-0.37
396,28.24,-15.68,30.21,0.42,0.84,-0.39
397,27.47,-15.47,29.31,0.42,0.86,-0.41
398,26.38,-13.77,29.45,0.44,0.86,-0.42
399,24.72,-13.24,28.18,0.46,0.86,-0.45
400,24.32,-15.11,25.92,0.47,0.85,-0.43
