,gyro_x,gyro_y,gyro_z,acce_x,acce_y,acce_z
0,1.40,-1.63,1.37,0.09,-0.17,1.03
1,1.39,0.37,1.76,0.06,-0.16,1.05
2,1.97,2.72,2.21,0.06,-0.16,1.04
3,1.76,5.42,2.99,0.05,-0.15,1.03
4,1.69,8.18,4.26,0.04,-0.16,1.01
5,0.90,9.22,4.76,0.04,-0.16,1.01
6,-0.05,9.73,5.10,0.05,-0.16,1.01
7,0.41,10.18,5.19,0.07,-0.17,1.02
8,0.14,10.00,4.64,0.10,-0.18,1.01
9,-0.06,9.65,3.69,0.11,-0.18,1.00
10,0.21,7.05,2.41,0.12,-0.18,0.99
11,-0.63,3.47,0.76,0.12,-0.19,0.99
12,-0.26,0.72,-0.81,0.13,-0.20,0.98
13,-2.09,-3.19,-1.65,0.10,-0.19,0.98
14,-3.45,-5.13,-2.40,0.10,-0.19,0.98
15,-4.29,-11.68,-3.22,0.08,-0.19,1.00
16,-6.49,-11.19,-2.46,0.06,-0.18,1.02
17,-6.03,-12.66,-2.70,0.04,-0.19,1.05
18,-6.02,-17.02,-2.43,0.03,-0.18,1.06
19,-5.47,-11.45,-1.53,0.05,-0.18,1.08
20,-5.37,-10.87,-1.11,0.03,-0.18,1.10
21,-3.85,-8.96,0.23,0.05,-0.19,1.11
22,-3.36,-7.40,0.96,0.06,-0.19,1.11
23,-2.37,-4.73,1.40,0.06,-0.19,1.10
24,-1.53,-2.05,1.98,0.06,-0.18,1.09
25,-0.82,-0.69,2.44,0.06,-0.18,1.09
26,-0.02,-0.12,2.98,0.07,-0.18,1.09
27,0.76,-0.32,3.28,0.08,-0.18,1.09
28,1.85,-1.37,3.36,0.08,-0.18,1.07
29,2.37,-2.15,3.66,0.08,-0.17,1.06
30,2.23,-2.81,3.86,0.08,-0.17,1.06
31,2.46,-3.42,3.92,0.08,-0.17,1.07
32,2.70,-3.10,3.65,0.09,-0.17,1.06
33,2.18,-2.03,3.59,0.10,-0.16,1.05
34,2.03,-2.09,3.47,0.09,-0.16,1.05
35,1.62,-0.70,3.69,0.09,-0.16,1.04
36,1.63,-0.35,3.57,0.08,-0.17,1.04
37,0.69,-2.92,3.68,0.09,-0.16,1.03
38,0.40,-3.40,3.86,0.09,-0.16,1.04
39,0.38,-2.15,3.83,0.09,-0.16,1.03
40,0.00,-2.14,3.73,0.09,-0.16,1.03
41,-0.37,-3.11,3.82,0.10,-0.16,1.03
42,-0.66,-2.85,3.71,0.10,-0.17,1.02
43,-0.96,-2.14,3.68,0.11,-0.16,1.03
44,-1.05,-1.79,3.31,0.11,-0.17,1.03
45,-1.48,-1.88,3.15,0.11,-0.17,1.02
46,-1.73,-3.11,3.05,0.10,-0.18,1.01
47,-2.14,-4.29,2.98,0.10,-0.18,1.01
48,-1.95,-6.23,2.56,0.09,-0.19,1.03
49,-1.95,-6.81,2.75,0.11,-0.18,1.02
50,-1.45,-5.11,1.80,0.11,-0.18,1.05
51,-2.63,-3.97,1.63,0.11,-0.19,1.05
52,-1.73,-2.95,1.40,0.11,-0.18,1.05
53,-1.07,-4.37,1.47,0.11,-0.19,1.06
54,-1.21,-4.38,1.40,0.11,-0.19,1.05
55,-1.18,-5.33,1.60,0.10,-0.19,1.06
56,-0.87,-5.36,1.98,0.12,-0.20,1.06
57,-0.78,-4.21,2.08,0.13,-0.20,1.07
58,-0.69,-2.76,1.83,0.13,-0.20,1.07
59,-0.49,-1.16,1.66,0.14,-0.20,1.06
60,0.18,0.37,1.62,0.14,-0.19,1.06
61,0.70,0.69,1.33,0.13,-0.19,1.07
62,1.19,0.85,1.13,0.13,-0.20,1.05
63,1.56,1.65,1.04,0.13,-0.19,1.05
64,1.62,1.98,1.04,0.12,-0.19,1.05
65,1.88,2.78,0.66,0.13,-0.19,1.04
66,1.79,3.24,0.64,0.13,-0.19,1.03
67,1.57,3.07,0.35,0.11,-0.19,1.02
68,1.16,1.91,0.24,0.11,-0.18,1.02
69,1.02,0.72,0.20,0.11,-0.19,1.01
70,0.64,-0.50,0.11,0.11,-0.18,1.01
71,0.32,-0.92,0.06,0.11,-0.19,1.01
72,0.40,-1.54,-0.58,0.11,-0.19,1.03
73,0.14,-1.59,-0.52,0.10,-0.19,1.03
74,0.12,-1.34,-0.49,0.10,-0.19,1.03
75,0.26,-1.50,-0.52,0.09,-0.20,1.04
76,0.20,0.44,-0.41,0.10,-0.19,1.03
77,-0.17,1.56,-0.56,0.10,-0.20,1.03
78,-0.49,2.11,-0.63,0.10,-0.19,1.04
79,-0.35,0.78,-0.78,0.09,-0.20,1.05
80,0.20,-0.15,-1.02,0.09,-0.19,1.07
81,0.95,-0.60,-0.98,0.09,-0.20,1.07
82,1.85,-0.67,-0.90,0.09,-0.20,1.08
83,2.24,1.24,-0.55,0.07,-0.19,1.08
84,2.70,1.59,-0.06,0.07,-0.19,1.07
85,3.07,1.85,0.41,0.06,-0.19,1.06
86,3.31,1.77,0.76,0.07,-0.19,1.07
87,3.54,2.72,1.28,0.07,-0.19,1.05
88,3.37,3.63,1.53,0.07,-0.19,1.04
89,3.04,4.14,2.02,0.06,-0.18,1.03
90,2.84,4.11,2.37,0.06,-0.18,1.02
91,2.53,2.87,2.72,0.06,-0.18,1.02
92,2.49,1.30,2.76,0.07,-0.18,1.02
93,2.50,0.14,2.66,0.07,-0.18,1.02
94,2.46,-0.78,2.35,0.07,-0.18,1.03
95,2.60,-1.37,2.85,0.08,-0.17,1.02
96,2.43,-2.05,2.76,0.08,-0.18,1.02
97,2.29,-1.62,2.76,0.08,-0.18,1.00
98,2.47,-1.74,2.84,0.09,-0.17,1.01
99,1.83,-2.61,2.79,0.08,-0.17,1.02
100,1.47,-2.02,2.79,0.09,-0.18,1.02
101,1.34,-3.28,2.76,0.09,-0.17,1.03
102,1.80,-4.03,2.66,0.09,-0.17,1.02
103,1.45,-4.29,2.64,0.09,-0.17,1.02
104,1.24,-3.54,2.50,0.10,-0.17,1.02
105,0.93,-4.26,2.89,0.08,-0.17,1.03
106,0.84,-5.07,2.85,0.09,-0.17,1.03
107,0.85,-6.20,2.66,0.09,-0.18,1.03
108,0.82,-6.21,2.73,0.10,-0.18,1.04
109,0.96,-5.47,2.76,0.11,-0.18,1.04
110,1.27,-4.78,2.49,0.12,-0.18,1.05
111,0.81,-4.08,2.29,0.11,-0.18,1.04
112,0.92,-2.90,2.67,0.11,-0.17,1.04
113,0.99,-1.86,2.79,0.11,-0.17,1.02
114,0.67,-2.12,2.76,0.12,-0.18,1.05
115,1.01,-1.71,2.95,0.12,-0.18,1.04
116,1.25,-2.09,2.78,0.11,-0.18,1.03
117,1.66,-1.66,2.84,0.12,-0.18,1.04
118,1.69,-1.57,2.96,0.12,-0.17,1.03
119,2.18,-1.88,3.18,0.12,-0.18,1.03
120,2.18,-1.63,3.22,0.12,-0.17,1.03
121,1.85,-1.27,3.31,0.11,-0.17,1.03
122,2.08,-1.51,2.90,0.12,-0.18,1.02
123,1.39,-2.06,2.95,0.11,-0.18,1.01
124,0.79,-2.95,2.72,0.11,-0.18,1.02
125,0.69,-3.44,2.92,0.11,-0.19,1.02
126,0.49,-3.57,2.81,0.11,-0.18,1.03
127,0.31,-3.44,2.89,0.12,-0.18,1.03
128,0.73,-3.15,3.08,0.12,-0.18,1.05
129,0.79,-2.64,3.02,0.12,-0.18,1.04
130,0.63,-1.57,3.51,0.12,-0.19,1.05
131,0.87,-1.22,3.42,0.12,-0.18,1.05
132,0.79,-0.89,3.27,0.12,-0.18,1.04
133,1.11,-0.87,3.25,0.12,-0.18,1.05
134,1.48,-1.07,3.13,0.13,-0.18,1.05
135,1.89,-1.21,2.89,0.13,-0.18,1.05
136,1.94,-0.53,2.32,0.13,-0.18,1.05
137,2.37,-0.03,2.15,0.13,-0.17,1.04
138,2.14,-0.67,2.00,0.13,-0.17,1.05
139,1.98,-0.38,1.97,0.13,-0.17,1.05
140,1.69,-0.35,1.73,0.13,-0.17,1.03
141,1.71,-0.85,1.27,0.13,-0.17,1.05
142,1.94,-1.34,1.22,0.14,-0.17,1.04
143,1.37,-1.28,1.08,0.14,-0.17,1.05
144,1.07,-1.51,0.67,0.13,-0.18,1.05
145,1.07,-1.91,0.61,0.13,-0.17,1.05
146,1.10,-1.18,0.55,0.14,-0.17,1.05
147,1.33,0.81,0.26,0.14,-0.17,1.06
148,1.34,3.02,0.27,0.14,-0.17,1.06
149,1.40,4.69,0.02,0.14,-0.17,1.05
150,1.36,5.97,-0.32,0.14,-0.17,1.05
151,1.30,5.92,-0.49,0.14,-0.17,1.05
152,1.66,4.89,-0.93,0.13,-0.17,1.06
153,2.05,4.12,-1.44,0.13,-0.17,1.06
154,2.49,3.62,-1.91,0.14,-0.17,1.05
155,2.79,2.56,-2.14,0.13,-0.16,1.05
156,3.15,1.98,-2.58,0.12,-0.17,1.05
157,3.51,2.32,-2.75,0.12,-0.17,1.04
158,3.24,2.73,-2.52,0.10,-0.16,1.02
159,2.64,3.74,-2.26,0.10,-0.17,1.01
160,1.88,4.21,-2.09,0.08,-0.16,1.01
161,1.39,3.94,-1.77,0.09,-0.17,1.01
162,0.87,3.45,-1.27,0.09,-0.17,1.00
163,0.56,3.11,-1.48,0.09,-0.17,1.01
164,0.27,3.16,-1.31,0.10,-0.16,1.02
165,-0.08,2.82,-1.08,0.11,-0.17,1.01
166,-0.81,2.50,-1.04,0.10,-0.16,1.01
167,-1.36,2.23,-1.28,0.10,-0.17,1.03
168,-0.38,1.18,-1.18,0.09,-0.17,1.04
169,-0.29,2.50,-1.07,0.10,-0.17,1.03
170,-0.11,1.44,-1.33,0.09,-0.17,1.04
171,0.17,0.66,-1.07,0.09,-0.17,1.05
172,0.18,-0.32,-0.84,0.08,-0.18,1.03
173,0.50,-0.38,-0.75,0.08,-0.18,1.04
174,0.43,0.15,-0.35,0.08,-0.18,1.04
175,0.67,0.46,0.15,0.08,-0.18,1.04
176,0.67,0.72,0.75,0.08,-0.18,1.04
177,0.89,0.61,1.19,0.08,-0.18,1.03
178,0.87,1.15,1.47,0.08,-0.17,1.03
179,0.64,1.86,1.73,0.09,-0.18,1.03
180,0.60,1.37,1.76,0.09,-0.17,1.05
181,0.85,1.39,1.66,0.09,-0.17,1.04
182,1.19,1.47,1.62,0.10,-0.17,1.04
183,1.42,1.25,1.37,0.09,-0.17,1.04
184,1.51,1.11,1.45,0.10,-0.17,1.04
185,1.59,0.43,1.65,0.11,-0.17,1.03
186,1.34,-0.85,1.33,0.11,-0.16,1.03
187,1.53,-0.84,1.10,0.12,-0.17,1.03
188,1.71,-0.84,0.92,0.11,-0.17,1.03
189,2.14,-0.63,0.69,0.10,-0.16,1.03
190,2.40,0.60,0.89,0.09,-0.16,1.02
191,2.02,1.24,1.25,0.09,-0.17,1.02
192,1.92,1.19,1.47,0.09,-0.16,1.01
193,1.48,0.96,1.77,0.09,-0.16,1.01
194,0.95,1.62,2.21,0.08,-0.16,1.01
195,0.58,1.60,2.38,0.09,-0.16,1.01
196,-0.03,0.98,2.24,0.10,-0.17,1.01
197,-0.41,1.30,2.11,0.11,-0.16,1.02
198,-0.95,0.92,1.82,0.11,-0.17,1.03
199,-1.13,-0.03,1.36,0.11,-0.16,1.03
200,-1.27,-0.23,0.79,0.12,-0.16,1.04
201,-1.50,-0.44,0.38,0.13,-0.15,1.03
202,-1.76,-0.75,0.12,0.13,-0.16,1.04
203,-1.92,-1.30,-0.14,0.12,-0.16,1.04
204,-1.60,-1.66,-0.64,0.12,-0.16,1.06
205,-1.02,-1.86,-0.99,0.12,-0.16,1.07
206,-0.64,-0.92,-0.96,0.11,-0.16,1.06
207,0.02,0.69,-0.99,0.11,-0.17,1.08
208,0.64,2.05,-0.85,0.10,-0.16,1.06
209,0.67,3.01,-0.46,0.09,-0.17,1.06
210,0.23,4.14,-0.37,0.10,-0.16,1.05
211,0.08,4.60,-0.21,0.10,-0.17,1.04
212,-0.17,4.02,-0.18,0.10,-0.17,1.05
213,-0.44,3.45,-0.02,0.10,-0.17,1.05
214,-0.55,3.21,-0.43,0.11,-0.17,1.05
215,-0.23,2.90,-0.58,0.11,-0.17,1.05
216,0.03,2.50,-0.95,0.11,-0.17,1.06
217,0.43,1.83,-1.15,0.10,-0.18,1.06
218,0.70,0.76,-1.10,0.08,-0.17,1.06
219,0.93,0.12,-0.95,0.09,-0.17,1.07
220,2.24,-0.26,-0.96,0.09,-0.17,1.08
221,2.26,3.01,-0.50,0.08,-0.18,1.03
222,2.06,1.79,-0.06,0.07,-0.17,1.04
223,2.35,-0.06,0.32,0.07,-0.17,1.05
224,2.15,0.26,0.41,0.07,-0.18,1.03
225,2.24,0.99,1.19,0.08,-0.17,1.03
226,2.21,0.60,1.36,0.07,-0.17,1.05
227,1.88,-0.20,1.77,0.07,-0.17,1.03
228,1.50,-0.93,2.09,0.08,-0.17,1.03
229,1.19,-0.66,2.15,0.09,-0.17,1.04
230,1.10,-0.21,2.18,0.10,-0.17,1.03
231,1.05,0.20,1.98,0.11,-0.17,1.05
232,1.25,0.12,1.74,0.11,-0.17,1.05
233,1.01,0.70,1.53,0.11,-0.17,1.04
234,1.88,-0.14,1.07,0.11,-0.17,1.05
235,1.68,-0.09,1.25,0.11,-0.16,1.04
236,1.71,-0.92,0.87,0.10,-0.17,1.04
237,1.73,-0.75,0.89,0.10,-0.16,1.04
238,1.65,-0.38,0.84,0.10,-0.16,1.04
239,1.95,-1.04,0.53,0.10,-0.16,1.04
240,1.65,-0.61,0.46,0.11,-0.16,1.04
241,1.30,1.42,0.85,0.11,-0.15,1.03
242,2.56,-2.53,0.38,0.09,-0.15,1.05
243,1.95,0.44,0.84,0.10,-0.16,1.03
244,1.69,2.18,0.76,0.11,-0.16,1.04
245,1.56,2.26,0.63,0.10,-0.16,1.03
246,1.07,2.18,0.73,0.11,-0.15,1.02
247,0.66,1.94,0.56,0.10,-0.16,1.02
248,0.89,2.15,0.52,0.10,-0.16,1.03
249,0.73,1.79,0.43,0.09,-0.16,1.02
250,0.81,2.82,0.37,0.10,-0.16,1.02
251,0.24,0.63,-0.05,0.10,-0.16,1.01
252,0.27,1.30,0.03,0.10,-0.15,1.02
253,-0.18,1.13,-0.32,0.10,-0.16,1.02
254,-0.31,0.34,-0.50,0.09,-0.16,1.02
255,-0.29,-0.85,-0.43,0.08,-0.15,1.02
256,-0.40,-1.44,-0.06,0.09,-0.15,1.02
257,-0.32,-0.82,0.00,0.09,-0.16,1.02
258,-0.40,-0.99,0.12,0.09,-0.16,1.02
259,-0.47,-1.04,0.21,0.08,-0.16,1.02
260,-0.50,-1.27,0.12,0.09,-0.17,1.03
261,-0.43,-1.36,0.34,0.10,-0.16,1.04
262,-0.46,-0.99,0.14,0.10,-0.17,1.04
263,-0.52,-0.81,0.32,0.09,-0.17,1.03
264,-0.87,-0.69,0.40,0.08,-0.17,1.02
265,-1.18,-0.41,0.69,0.07,-0.16,1.03
266,-1.05,-0.34,0.99,0.08,-0.17,1.04
267,-1.30,-0.29,0.98,0.09,-0.17,1.02
268,-1.57,-0.46,0.81,0.10,-0.17,1.03
269,-1.51,-1.01,0.58,0.10,-0.17,1.04
270,-1.18,-1.04,0.61,0.10,-0.17,1.04
271,-0.31,-1.18,0.84,0.09,-0.16,1.06
272,0.29,-2.64,0.93,0.08,-0.16,1.07
273,0.41,-3.07,1.37,0.08,-0.17,1.06
274,0.56,-2.63,1.68,0.08,-0.17,1.06
275,0.70,-1.74,2.08,0.08,-0.16,1.06
276,0.32,-1.08,2.08,0.09,-0.17,1.06
277,0.23,-0.40,2.29,0.10,-0.17,1.05
278,0.21,-0.41,2.21,0.11,-0.18,1.06
279,0.64,-0.99,1.83,0.11,-0.17,1.05
280,0.79,-1.57,1.73,0.12,-0.17,1.06
281,0.99,-2.52,1.50,0.11,-0.16,1.06
282,0.73,-2.53,1.34,0.11,-0.16,1.06
283,0.98,-1.47,1.44,0.12,-0.16,1.06
284,1.13,-0.67,1.44,0.11,-0.16,1.07
285,1.28,0.26,1.31,0.12,-0.16,1.06
286,1.63,1.34,1.13,0.13,-0.17,1.05
287,1.97,2.17,1.10,0.12,-0.17,1.05
288,2.05,2.17,0.89,0.11,-0.16,1.05
289,2.20,2.11,1.15,0.11,-0.16,1.04
290,2.20,1.98,1.05,0.11,-0.17,1.04
291,2.17,2.58,1.01,0.11,-0.16,1.03
292,2.21,2.82,1.16,0.11,-0.17,1.02
293,2.00,3.16,1.21,0.12,-0.17,1.02
294,1.62,2.78,0.89,0.11,-0.16,1.02
295,1.28,2.17,0.64,0.12,-0.15,1.01
296,1.16,1.66,0.40,0.12,-0.16,1.01
297,0.85,1.54,0.37,0.12,-0.16,1.03
298,0.15,0.69,-0.12,0.11,-0.16,1.01
299,-0.06,0.17,-0.23,0.11,-0.16,1.02
300,-0.41,-0.56,-0.26,0.11,-0.16,1.02
301,-0.70,-1.59,-0.73,0.11,-0.16,1.02
302,-0.60,-1.79,-1.04,0.12,-0.16,1.03
303,-0.49,-0.64,-1.19,0.12,-0.16,1.04
304,-0.73,0.08,-1.24,0.12,-0.16,1.05
305,-0.64,0.82,-1.28,0.12,-0.16,1.05
306,-0.49,0.92,-1.13,0.11,-0.16,1.05
307,-0.41,1.62,-1.07,0.11,-0.16,1.06
308,-0.20,1.95,-0.90,0.10,-0.16,1.05
309,-0.02,2.02,-0.87,0.09,-0.16,1.05
310,-0.06,2.26,-0.66,0.10,-0.17,1.05
311,0.12,1.94,-0.64,0.09,-0.17,1.05
312,0.37,1.53,-0.66,0.09,-0.17,1.05
313,0.49,1.50,-0.35,0.09,-0.17,1.05
314,0.50,1.19,-0.35,0.09,-0.17,1.04
315,0.90,1.40,-0.31,0.09,-0.17,1.04
316,1.16,2.18,-0.23,0.09,-0.16,1.05
317,1.31,1.62,-0.02,0.09,-0.17,1.04
318,1.01,1.69,0.23,0.08,-0.16,1.03
319,0.98,2.24,0.20,0.09,-0.16,1.04
320,0.52,2.41,0.11,0.08,-0.16,1.03
321,0.41,2.06,0.21,0.09,-0.16,1.03
322,0.21,2.06,0.23,0.10,-0.16,1.03
323,-0.06,2.78,0.11,0.10,-0.16,1.04
324,0.35,3.22,0.27,0.10,-0.17,1.05
325,0.76,2.55,0.34,0.09,-0.16,1.04
326,0.35,1.95,0.37,0.09,-0.16,1.04
327,0.11,2.15,0.32,0.09,-0.17,1.04
328,0.00,2.26,0.12,0.09,-0.16,1.03
329,-0.41,1.11,0.09,0.08,-0.16,1.04
330,0.32,0.06,0.08,0.07,-0.17,1.04
331,0.15,0.02,0.18,0.09,-0.16,1.06
332,0.43,0.03,0.11,0.09,-0.17,1.05
333,0.95,0.55,-0.03,0.09,-0.17,1.06
334,1.16,0.43,0.06,0.09,-0.15,1.06
335,1.15,-0.69,0.05,0.08,-0.16,1.07
336,1.69,-1.24,0.38,0.08,-0.17,1.06
337,1.82,-0.76,0.56,0.08,-0.16,1.06
338,1.60,-3.11,0.15,0.08,-0.17,1.05
339,1.68,-3.04,0.40,0.09,-0.16,1.05
340,1.40,-1.54,0.20,0.09,-0.17,1.06
341,1.63,-2.27,0.49,0.08,-0.17,1.06
342,1.97,-2.87,0.32,0.08,-0.17,1.06
343,1.62,-3.19,0.66,0.09,-0.17,1.05
344,1.56,-3.18,0.66,0.09,-0.17,1.05
345,1.57,-2.32,1.10,0.08,-0.16,1.07
346,1.97,-2.00,1.28,0.09,-0.16,1.06
347,2.26,-1.30,1.50,0.09,-0.16,1.07
348,2.72,0.67,1.25,0.11,-0.16,1.04
349,2.35,1.19,1.59,0.10,-0.17,1.05
350,1.69,1.79,1.94,0.10,-0.16,1.05
351,2.08,2.85,2.05,0.09,-0.16,1.04
352,2.06,-0.67,1.15,0.09,-0.17,1.03
353,1.80,0.96,1.36,0.10,-0.16,1.03
354,2.05,0.69,1.34,0.10,-0.16,1.02
355,1.54,-0.21,1.02,0.09,-0.15,1.02
356,1.80,-0.03,0.92,0.10,-0.15,1.03
357,1.98,1.45,1.33,0.10,-0.15,1.03
358,1.10,-0.46,1.37,0.09,-0.15,1.02
359,1.42,0.49,1.50,0.10,-0.15,1.01
360,1.71,-0.12,1.45,0.10,-0.15,1.01
361,1.42,1.85,1.50,0.11,-0.15,1.00
362,1.18,-0.41,0.96,0.10,-0.15,1.01
363,1.24,-0.12,1.08,0.11,-0.15,0.99
364,0.52,-1.07,0.82,0.10,-0.15,1.00
365,0.20,-0.70,0.85,0.10,-0.14,1.01
366,-0.09,-0.40,0.95,0.09,-0.15,1.01
367,-0.24,-0.37,0.95,0.10,-0.15,1.01
368,-0.56,0.29,0.67,0.09,-0.16,1.01
369,-0.61,0.60,0.44,0.09,-0.15,1.01
370,-0.72,0.20,0.38,0.09,-0.15,1.02
371,-0.78,-2.06,0.44,0.08,-0.15,1.04
372,-0.27,-2.78,0.34,0.09,-0.16,1.04
373,-0.08,-3.89,0.32,0.08,-0.16,1.05
374,0.58,-4.03,0.60,0.09,-0.15,1.05
375,1.13,-3.62,0.98,0.08,-0.15,1.07
376,1.65,-1.80,1.24,0.09,-0.16,1.06
377,1.42,-0.29,1.62,0.09,-0.16,1.05
378,1.21,0.26,2.12,0.08,-0.16,1.04
379,0.81,0.56,2.29,0.08,-0.15,1.03
380,0.43,0.21,2.35,0.09,-0.16,1.04
381,0.35,-0.18,2.40,0.10,-0.16,1.05
382,0.60,-0.09,2.44,0.10,-0.16,1.05
383,0.63,0.27,2.37,0.10,-0.15,1.06
384,0.76,1.36,2.43,0.09,-0.15,1.04
385,0.55,2.18,2.69,0.10,-0.16,1.04
386,0.58,2.11,2.55,0.10,-0.15,1.05
387,0.53,1.69,2.69,0.09,-0.15,1.04
388,0.63,0.82,2.73,0.10,-0.15,1.04
389,0.61,0.46,2.49,0.10,-0.16,1.03
390,0.66,0.32,2.53,0.10,-0.15,1.03
391,0.95,-0.14,2.41,0.11,-0.15,1.04
392,1.08,-0.27,2.29,0.11,-0.15,1.03
393,0.95,-0.81,1.88,0.11,-0.15,1.03
394,0.61,-1.31,1.65,0.11,-0.15,1.02
395,0.11,-1.86,1.21,0.10,-0.15,1.02
396,-0.41,-2.43,1.28,0.11,-0.16,1.02
397,-0.92,-2.47,1.45,0.11,-0.15,1.02
398,-1.56,-2.93,1.30,0.11,-0.16,1.02
399,-1.85,-3.05,0.98,0.11,-0.16,1.02
400,-2.40,-3.01,0.69,0.11,-0.15,1.03
401,-0.79,-4.72,0.53,0.11,-0.16,1.05
402,-3.08,-2.79,0.47,0.11,-0.16,1.05
403,-2.08,-3.60,0.40,0.10,-0.16,1.05
404,-1.94,-2.08,0.47,0.11,-0.16,1.05
405,-2.08,-1.74,0.35,0.11,-0.16,1.05
406,-1.79,-1.60,0.24,0.11,-0.16,1.06
407,-1.69,-1.30,0.09,0.11,-0.16,1.06
408,-1.37,-0.78,0.03,0.13,-0.16,1.05
409,-1.25,0.58,-0.69,0.13,-0.16,1.06
410,-1.33,1.18,-1.25,0.13,-0.15,1.04
411,-1.18,0.64,-1.79,0.13,-0.16,1.04
412,-1.24,-0.15,-2.12,0.12,-0.15,1.05
413,-0.70,-0.78,-2.17,0.12,-0.16,1.05
414,-0.09,-1.08,-2.35,0.11,-0.16,1.05
415,0.26,-0.78,-2.66,0.11,-0.15,1.05
416,0.87,0.82,-2.66,0.12,-0.16,1.04
417,0.78,1.48,-2.70,0.10,-0.16,1.03
418,0.53,1.18,-2.61,0.11,-0.16,1.02
419,-0.08,0.43,-2.58,0.10,-0.16,1.02
420,-0.55,-0.67,-2.37,0.08,-0.16,1.03
421,-0.40,-1.15,-2.08,0.08,-0.16,1.04
422,-0.02,-0.87,-1.59,0.09,-0.16,1.05
423,-0.08,0.50,-0.95,0.09,-0.16,1.05
424,-0.37,1.65,-0.26,0.09,-0.16,1.03
425,-0.27,2.26,0.17,0.09,-0.16,1.04
426,-0.29,2.87,0.17,0.10,-0.16,1.04
427,-0.53,2.02,0.21,0.09,-0.16,1.03
428,-0.47,1.02,0.46,0.09,-0.16,1.03
429,-0.55,-0.41,0.58,0.10,-0.17,1.04
430,-0.56,-1.15,0.46,0.10,-0.17,1.03
431,-0.69,-2.29,0.58,0.10,-0.16,1.03
432,-0.72,-3.11,0.56,0.09,-0.16,1.04
433,-0.67,-3.13,0.56,0.09,-0.16,1.04
434,-0.82,-2.41,0.67,0.10,-0.16,1.05
435,-0.67,-2.14,0.95,0.09,-0.16,1.04
436,-0.60,-1.73,0.81,0.09,-0.17,1.05
437,-0.78,-1.08,0.99,0.09,-0.16,1.05
438,-0.87,-1.07,1.31,0.09,-0.17,1.04
439,-1.13,-0.82,1.31,0.08,-0.17,1.05
440,-1.16,-1.05,1.63,0.09,-0.16,1.05
441,-1.02,-0.92,1.71,0.10,-0.16,1.05
442,-0.58,-0.99,1.34,0.10,-0.17,1.05
443,-0.47,-0.99,1.39,0.09,-0.16,1.05
444,-0.24,-1.30,1.34,0.10,-0.16,1.06
445,0.05,-1.51,1.42,0.10,-0.16,1.05
446,0.44,-1.28,1.47,0.09,-0.16,1.05
447,0.95,-1.34,1.50,0.09,-0.16,1.06
448,1.54,-1.34,1.60,0.08,-0.16,1.08
449,1.30,-0.93,2.00,0.07,-0.16,1.05
450,1.44,-0.50,2.50,0.09,-0.15,1.06
451,1.24,0.09,2.49,0.10,-0.15,1.05
452,1.10,0.08,2.44,0.11,-0.16,1.04
453,0.98,-1.19,2.38,0.10,-0.16,1.04
454,0.87,-2.14,2.32,0.10,-0.15,1.03
455,0.85,-2.50,2.46,0.10,-0.16,1.03
456,0.78,-3.11,2.55,0.10,-0.16,1.03
457,0.93,-3.91,2.15,0.09,-0.15,1.03
458,0.41,-3.73,2.21,0.09,-0.15,1.03
459,0.26,-3.28,2.38,0.10,-0.16,1.03
460,0.06,-2.84,2.34,0.11,-0.15,1.03
461,0.20,-2.67,2.60,0.10,-0.16,1.04
462,0.29,-2.58,2.60,0.10,-0.16,1.03
463,-0.32,-1.40,2.87,0.10,-0.15,1.03
464,-0.08,-1.83,3.02,0.10,-0.16,1.04
465,0.20,-2.26,2.87,0.11,-0.16,1.04
466,0.03,-1.60,2.90,0.12,-0.16,1.05
467,0.11,-1.42,2.89,0.12,-0.16,1.05
468,0.29,-1.31,2.93,0.11,-0.16,1.04
469,0.43,-1.59,2.61,0.12,-0.16,1.05
470,0.61,-1.76,2.49,0.13,-0.16,1.04
471,0.89,-3.01,2.23,0.11,-0.16,1.05
472,0.85,-2.43,2.11,0.12,-0.16,1.04
473,0.98,-2.41,1.97,0.12,-0.16,1.04
474,0.99,-1.91,1.82,0.11,-0.16,1.04
475,0.44,-1.36,2.06,0.12,-0.16,1.03
476,0.41,-0.85,2.06,0.12,-0.15,1.04
477,0.24,-0.49,2.09,0.13,-0.15,1.04
478,0.21,-0.37,1.74,0.14,-0.16,1.03
479,0.12,0.18,1.50,0.14,-0.16,1.02
480,-0.12,0.09,1.30,0.14,-0.15,1.03
481,0.06,-0.64,0.95,0.13,-0.16,1.03
482,0.12,-1.04,0.95,0.13,-0.16,1.04
483,1.45,-0.50,0.72,0.13,-0.16,1.05
484,-0.02,1.18,0.46,0.14,-0.16,1.05
485,0.47,-0.24,0.12,0.13,-0.16,1.05
486,0.41,0.64,0.20,0.13,-0.16,1.03
487,0.52,0.53,-0.02,0.13,-0.16,1.03
488,0.12,0.29,-0.20,0.13,-0.16,1.03
489,0.06,-0.05,-0.75,0.13,-0.16,1.03
490,0.31,0.46,-0.95,0.14,-0.15,1.02
491,0.43,0.21,-0.95,0.14,-0.16,1.02
492,0.27,-0.17,-1.10,0.13,-0.16,1.02
493,-0.21,0.00,-1.08,0.12,-0.16,1.02
494,-0.46,-0.17,-0.98,0.12,-0.16,1.01
495,-0.89,0.06,-0.90,0.12,-0.16,1.02
496,-1.21,0.26,-1.02,0.13,-0.16,1.02
497,-1.97,0.70,-0.73,0.12,-0.16,1.02
498,-2.31,0.66,-0.84,0.12,-0.16,1.02
499,-2.89,0.24,-0.95,0.12,-0.16,1.03
500,-3.24,-0.11,-0.99,0.12,-0.17,1.03
501,-3.37,0.09,-1.07,0.12,-0.17,1.05
502,-3.15,0.15,-1.13,0.11,-0.17,1.05
503,-2.47,-0.72,-1.21,0.12,-0.18,1.06
504,-1.89,-1.37,-1.16,0.11,-0.18,1.06
505,-1.25,-0.49,-0.79,0.11,-0.17,1.06
506,-0.72,0.85,-0.75,0.11,-0.17,1.06
507,-0.12,1.88,-0.44,0.10,-0.18,1.06
508,0.34,2.58,-0.09,0.11,-0.17,1.05
509,0.43,2.92,0.21,0.11,-0.17,1.04
510,0.52,3.21,-0.09,0.11,-0.17,1.04
511,0.79,2.76,-0.27,0.11,-0.16,1.04
512,1.10,2.70,-0.27,0.11,-0.17,1.04
513,0.70,2.72,-0.35,0.11,-0.16,1.03
514,0.81,2.84,-0.55,0.10,-0.17,1.04
515,0.78,2.24,-0.41,0.10,-0.16,1.02
516,0.52,2.56,-0.21,0.11,-0.16,1.02
517,0.23,3.05,-0.38,0.11,-0.16,1.01
518,-0.27,2.44,-0.14,0.11,-0.16,1.01
519,-0.96,1.63,-0.47,0.11,-0.16,0.99
520,-1.66,0.63,-0.60,0.11,-0.16,0.99
521,-1.92,0.00,-0.61,0.10,-0.16,1.00
522,-2.03,-0.81,-0.55,0.10,-0.16,1.01
523,-1.98,-1.25,-0.15,0.10,-0.16,1.03
524,-1.69,-1.08,0.18,0.09,-0.16,1.03
525,-1.77,-0.26,0.37,0.10,-0.15,1.04
526,-1.77,1.04,0.58,0.11,-0.16,1.04
527,-1.30,2.72,0.46,0.11,-0.16,1.03
528,-1.71,2.95,0.12,0.11,-0.16,1.04
529,-1.36,2.93,0.08,0.12,-0.16,1.04
530,-1.19,1.91,0.08,0.10,-0.16,1.04
531,-0.70,1.42,0.05,0.10,-0.16,1.04
532,-1.11,0.52,-0.09,0.11,-0.17,1.04
533,-1.11,-0.02,-0.17,0.12,-0.16,1.03
534,-1.56,-0.32,-0.21,0.11,-0.17,1.05
535,-1.60,0.43,0.00,0.11,-0.16,1.03
536,-1.30,0.66,-0.05,0.11,-0.16,1.03
537,-1.44,0.75,-0.34,0.11,-0.16,1.04
538,-1.40,0.79,-0.53,0.11,-0.16,1.04
539,-1.37,0.79,-0.52,0.11,-0.16,1.03
540,-1.25,0.47,-0.56,0.12,-0.16,1.03
541,-1.83,2.15,-0.82,0.12,-0.16,1.03
542,-1.79,0.61,-0.92,0.10,-0.16,1.03
543,-2.02,-0.58,-0.58,0.10,-0.16,1.04
544,-1.69,-0.76,-0.60,0.10,-0.16,1.05
545,-1.04,1.47,-0.24,0.10,-0.16,1.05
546,-1.24,3.63,0.11,0.11,-0.16,1.05
547,-1.30,4.08,-0.09,0.11,-0.16,1.05
548,-1.91,4.90,0.06,0.10,-0.16,1.04
549,-2.05,6.34,-0.21,0.10,-0.15,1.04
550,-1.95,4.76,-0.38,0.10,-0.16,1.03
551,-1.59,3.11,-1.02,0.10,-0.16,1.04
552,-1.60,2.37,-1.34,0.09,-0.16,1.04
553,-2.96,3.82,-2.49,0.11,-0.17,1.01
554,-1.88,3.36,-3.02,0.11,-0.17,1.07
555,-0.14,-2.67,-1.25,0.11,-0.16,1.08
556,0.64,-4.96,-1.18,0.08,-0.17,1.08
557,0.96,-2.52,-1.76,0.08,-0.17,1.07
558,0.75,3.05,-0.31,0.09,-0.17,1.07
559,0.44,3.10,0.11,0.08,-0.18,1.11
560,-0.81,4.50,0.38,0.08,-0.19,1.12
561,-0.38,5.16,0.90,0.07,-0.19,1.17
562,0.37,-0.27,1.19,0.02,-0.20,1.22
563,-0.41,7.51,6.85,0.07,-0.19,1.30
564,2.31,10.96,8.92,0.04,-0.21,1.37
565,6.29,19.45,9.91,0.06,-0.22,1.44
566,12.02,25.92,13.11,0.09,-0.24,1.54
567,21.11,26.53,10.53,0.11,-0.29,1.61
568,23.89,37.47,11.54,0.13,-0.30,1.60
569,33.94,34.67,11.31,0.08,-0.32,1.67
570,44.52,21.01,8.93,0.08,-0.38,1.69
571,51.80,9.16,11.16,0.05,-0.38,1.74
572,63.04,-14.85,10.69,0.01,-0.42,1.81
573,74.92,-25.94,11.28,0.02,-0.45,1.90
574,85.25,-25.18,18.02,0.08,-0.45,2.05
575,88.96,-24.64,22.21,0.08,-0.43,2.16
576,98.21,-17.31,25.51,0.15,-0.47,2.29
577,104.72,-12.15,28.40,0.21,-0.49,2.40
578,107.76,-8.23,28.29,0.31,-0.49,2.44
579,115.68,1.95,22.43,0.45,-0.53,2.48
580,122.70,3.62,12.70,0.50,-0.53,2.67
581,134.89,15.22,4.66,0.65,-0.57,2.65
582,153.40,13.18,-7.86,0.62,-0.59,2.71
583,171.13,16.87,-14.96,0.58,-0.58,2.74
584,184.44,23.71,-22.41,0.47,-0.66,2.51
585,198.89,10.96,-29.95,0.25,-0.69,2.37
586,204.09,11.79,-31.57,0.22,-0.70,2.15
587,209.44,10.72,-31.33,0.15,-0.72,1.83
588,221.11,2.84,-27.83,0.06,-0.76,1.74
589,230.11,0.14,-21.89,0.02,-0.74,1.54
590,228.73,1.08,-19.13,-0.08,-0.74,1.42
591,244.73,18.32,-15.02,-0.03,-0.72,1.31
592,261.19,31.68,-11.07,-0.01,-0.73,1.28
593,284.09,13.76,-9.22,-0.04,-0.68,1.20
594,299.47,-25.50,-10.75,-0.08,-0.64,1.06
595,308.40,-61.44,-16.27,-0.05,-0.61,0.90
596,307.24,-73.39,-18.49,-0.03,-0.53,0.82
597,310.31,-72.63,-19.05,-0.07,-0.49,0.77
598,313.51,-60.32,-16.53,-0.09,-0.43,0.81
599,323.54,-56.55,-9.86,-0.12,-0.37,0.88
600,333.79,-74.87,-9.15,-0.09,-0.35,0.84
601,339.02,-78.70,-8.20,-0.01,-0.32,0.70
602,334.20,-63.34,-6.06,0.14,-0.27,0.54
603,329.42,-44.92,-3.80,0.24,-0.23,0.45
604,326.81,-42.63,-12.23,0.20,-0.24,0.54
605,327.42,-38.21,-15.88,0.24,-0.18,0.53
606,321.05,-33.36,-16.85,0.25,-0.17,0.56
607,320.27,-15.91,-14.50,0.25,-0.16,0.51
608,316.15,1.36,-9.92,0.18,-0.15,0.42
609,306.66,13.02,-4.38,0.17,-0.11,0.33
610,292.98,27.33,0.85,0.19,-0.08,0.20
611,274.81,32.29,3.98,0.20,-0.05,0.09
612,264.67,42.52,5.36,0.24,-0.04,-0.01
613,246.21,55.79,6.14,0.27,0.02,0.00
614,231.18,54.41,4.52,0.16,0.11,-0.03
615,220.08,48.84,3.33,0.10,0.14,-0.12
616,210.55,38.08,-0.17,0.02,0.21,-0.12
617,196.66,26.44,0.99,-0.04,0.30,-0.12
618,189.53,25.51,3.28,0.00,0.31,-0.19
619,184.60,32.26,5.40,0.04,0.35,-0.11
620,183.21,44.72,7.71,0.11,0.34,-0.12
621,179.68,53.24,9.31,0.10,0.37,-0.07
622,170.78,48.64,9.21,0.06,0.43,-0.05
623,156.98,37.48,9.07,0.03,0.46,-0.09
624,131.01,21.28,5.37,-0.01,0.52,-0.11
625,103.47,3.22,1.08,0.00,0.58,-0.16
626,89.63,-6.27,-0.67,0.06,0.60,-0.26
627,63.76,-13.02,-3.05,0.10,0.63,-0.32
628,61.60,-15.08,-6.08,0.06,0.67,-0.36
629,38.73,-32.37,-14.78,0.03,0.74,-0.34
630,7.48,-48.70,-21.31,0.03,0.72,-0.33
631,14.34,-59.53,-32.29,0.03,0.76,-0.38
632,28.09,-65.77,-36.73,0.02,0.77,-0.33
633,22.00,-74.73,-44.52,0.00,0.79,-0.25
634,-1.53,-78.96,-55.22,0.00,0.81,-0.23
635,-25.74,-71.85,-52.99,-0.02,0.81,-0.17
636,-52.08,-61.82,-52.41,-0.07,0.90,-0.16
637,-79.47,-51.37,-40.85,-0.15,0.92,-0.14
638,-127.56,-68.23,-57.73,-0.29,1.06,-0.10
639,-158.99,-74.08,-56.90,-0.23,1.05,-0.20
640,-177.50,-77.45,-61.92,-0.16,1.18,-0.43
641,-179.95,-87.08,-54.67,-0.30,1.23,-0.31
642,-147.76,-64.44,-31.57,-0.16,1.13,-0.39
643,-128.70,-64.78,-32.89,-0.04,1.12,-0.34
644,-107.92,-61.56,-33.88,0.05,1.04,-0.19
645,-99.27,-58.24,-29.28,-0.03,0.95,-0.10
646,-99.19,-54.98,-25.30,-0.02,0.92,0.04
647,-71.39,-58.92,-30.89,-0.15,0.88,0.23
648,21.01,-9.60,16.14,-0.12,0.59,0.20
649,74.55,-3.10,3.53,0.14,0.52,-0.03
650,96.89,4.29,-6.21,-0.14,0.80,0.01
651,22.79,-33.66,-0.09,-0.12,0.93,0.09
652,34.44,-58.11,7.74,-0.17,0.96,-0.01
653,13.82,-101.11,-28.98,-0.16,1.02,-0.18
654,-0.87,-78.63,-16.17,-0.02,1.34,-0.17
655,5.73,-91.56,-21.31,-0.08,1.20,-0.10
656,-7.40,-91.11,-17.16,0.03,1.29,-0.02
657,-6.61,-26.81,7.91,0.18,1.23,-0.19
658,-9.04,0.82,25.21,0.02,1.25,-0.09
659,-29.10,-8.41,24.85,0.02,1.26,0.05
660,-40.08,-30.40,10.03,0.09,1.18,0.08
661,-54.63,-55.59,-16.70,0.11,1.12,0.17
