,gyro_x,gyro_y,gyro_z,acce_x,acce_y,acce_z
0,18.73,-1.07,4.63,-0.08,0.03,1.04
1,18.08,-2.47,4.81,-0.09,0.02,1.06
2,19.53,-4.84,4.95,-0.10,0.02,1.08
3,20.15,-3.71,4.60,-0.08,0.03,1.08
4,21.19,-5.28,3.91,-0.09,0.03,1.06
5,21.79,-5.97,4.18,-0.09,0.02,1.07
6,22.09,-6.03,4.95,-0.09,0.03,1.07
7,22.69,-5.11,5.31,-0.08,0.03,1.06
8,22.18,-4.50,5.51,-0.07,0.04,1.05
9,21.76,-2.90,5.65,-0.06,0.05,1.06
10,21.33,-2.14,6.27,-0.06,0.05,1.05
11,20.60,-0.67,6.76,-0.05,0.05,1.05
12,19.54,-0.37,6.31,-0.05,0.06,1.04
13,18.79,-0.75,5.92,-0.05,0.05,1.05
14,18.55,-0.53,5.33,-0.06,0.05,1.06
15,18.66,0.12,4.89,-0.05,0.05,1.06
16,19.13,0.20,4.70,-0.06,0.04,1.06
17,19.44,0.79,4.92,-0.07,0.04,1.06
18,19.77,1.19,5.34,-0.06,0.04,1.06
19,20.12,1.44,5.34,-0.07,0.04,1.06
20,20.46,1.69,5.60,-0.06,0.05,1.06
21,20.66,1.59,5.60,-0.05,0.04,1.06
22,21.01,1.94,5.27,-0.06,0.05,1.06
23,21.11,2.44,5.18,-0.05,0.06,1.06
24,21.16,2.35,4.73,-0.05,0.07,1.05
25,21.34,3.04,4.69,-0.05,0.06,1.04
26,21.39,3.92,4.34,-0.05,0.07,1.05
27,21.69,4.40,4.27,-0.05,0.07,1.05
28,21.86,5.28,4.66,-0.05,0.08,1.05
29,21.34,6.17,5.18,-0.07,0.09,1.06
30,21.13,6.00,5.16,-0.07,0.09,1.05
31,21.34,5.82,5.07,-0.08,0.10,1.07
32,21.40,5.16,4.89,-0.07,0.08,1.09
33,21.95,4.79,5.04,-0.08,0.08,1.10
34,22.95,5.62,5.54,-0.08,0.07,1.11
35,23.82,7.27,5.82,-0.07,0.07,1.12
36,24.50,7.73,5.56,-0.08,0.06,1.13
37,25.10,8.60,6.00,-0.09,0.06,1.14
38,26.05,9.18,6.35,-0.09,0.06,1.15
39,27.25,8.63,6.18,-0.10,0.05,1.16
40,28.61,7.74,6.52,-0.11,0.05,1.18
41,30.47,7.08,6.81,-0.11,0.04,1.18
42,32.20,7.10,6.72,-0.11,0.04,1.19
43,34.38,7.51,6.63,-0.12,0.05,1.19
44,37.50,7.95,7.08,-0.12,0.05,1.19
45,37.01,8.56,7.42,-0.12,0.10,1.15
46,39.71,10.87,7.92,-0.11,0.07,1.18
47,40.95,11.07,8.61,-0.12,0.08,1.17
48,41.66,12.21,9.27,-0.12,0.09,1.16
49,42.46,12.64,9.77,-0.13,0.09,1.14
50,42.90,12.14,9.66,-0.13,0.11,1.13
51,43.11,10.58,9.66,-0.13,0.11,1.13
52,43.85,9.37,9.68,-0.14,0.12,1.13
53,44.23,8.21,9.57,-0.13,0.12,1.13
54,44.66,6.53,9.76,-0.14,0.13,1.12
55,45.22,6.61,10.15,-0.14,0.14,1.11
56,45.71,7.40,10.40,-0.13,0.13,1.10
57,46.95,8.78,10.95,-0.12,0.15,1.09
58,47.34,9.50,11.25,-0.12,0.15,1.08
59,47.83,9.88,11.77,-0.12,0.16,1.08
60,48.46,10.38,12.05,-0.12,0.17,1.07
61,48.56,10.11,12.47,-0.13,0.18,1.07
62,48.72,9.57,12.79,-0.13,0.18,1.05
63,48.73,8.11,12.47,-0.13,0.20,1.06
64,49.15,6.95,12.20,-0.12,0.20,1.05
65,49.56,5.77,12.06,-0.12,0.20,1.05
66,49.80,6.05,11.98,-0.11,0.21,1.05
67,50.15,6.20,11.86,-0.11,0.22,1.04
68,50.55,7.37,12.29,-0.12,0.22,1.04
69,50.56,8.55,12.53,-0.11,0.23,1.03
70,50.58,9.10,12.73,-0.11,0.23,1.03
71,50.72,8.50,12.66,-0.12,0.24,1.03
72,50.79,7.77,12.93,-0.13,0.25,1.02
73,51.02,6.98,12.95,-0.12,0.25,1.02
74,51.04,6.24,13.01,-0.13,0.25,1.01
75,51.27,5.91,13.10,-0.13,0.25,1.02
76,51.21,6.18,13.21,-0.12,0.26,1.01
77,51.30,6.81,13.04,-0.12,0.26,1.01
78,51.65,7.45,13.39,-0.12,0.27,1.02
79,52.18,7.57,13.83,-0.12,0.27,1.02
80,52.56,7.85,14.17,-0.12,0.28,1.02
81,53.24,7.97,14.35,-0.12,0.29,1.00
82,53.82,7.56,14.46,-0.12,0.30,1.01
83,54.06,6.90,14.15,-0.12,0.30,0.99
84,53.88,6.32,13.68,-0.12,0.31,0.98
85,53.95,6.35,13.95,-0.12,0.33,0.97
86,53.59,6.89,13.74,-0.11,0.33,0.97
87,53.60,8.00,13.79,-0.11,0.34,0.97
88,53.31,9.53,14.29,-0.11,0.34,0.96
89,53.07,11.19,14.58,-0.11,0.35,0.97
90,53.18,11.59,15.01,-0.12,0.36,0.96
91,53.40,11.89,15.51,-0.13,0.36,0.95
92,54.06,11.25,15.56,-0.13,0.36,0.96
93,54.70,9.54,15.30,-0.13,0.37,0.96
94,55.22,7.66,14.93,-0.14,0.38,0.95
95,55.24,6.46,14.60,-0.13,0.38,0.93
96,55.08,5.27,14.44,-0.12,0.39,0.94
97,54.98,5.62,14.34,-0.12,0.39,0.92
98,54.85,5.69,14.56,-0.11,0.40,0.93
99,54.43,6.35,14.24,-0.11,0.40,0.91
100,53.97,7.22,14.49,-0.11,0.41,0.92
101,53.42,8.37,14.58,-0.11,0.42,0.90
102,53.05,9.42,14.99,-0.11,0.42,0.92
103,52.85,10.29,15.63,-0.12,0.42,0.91
104,52.78,10.46,15.92,-0.13,0.43,0.90
105,52.60,9.37,16.37,-0.14,0.44,0.90
106,52.37,7.74,16.52,-0.14,0.44,0.90
107,52.32,6.20,16.70,-0.15,0.45,0.90
108,52.43,5.25,17.22,-0.14,0.46,0.89
109,53.10,4.93,17.50,-0.13,0.47,0.89
110,53.15,5.33,17.69,-0.12,0.48,0.88
111,53.30,5.95,17.51,-0.11,0.48,0.87
112,52.99,7.22,17.80,-0.11,0.49,0.86
113,52.46,7.44,18.03,-0.11,0.51,0.85
114,51.94,8.69,18.64,-0.10,0.51,0.84
115,51.08,8.67,18.53,-0.09,0.51,0.83
116,50.31,8.98,18.31,-0.09,0.53,0.82
117,49.28,8.85,18.21,-0.10,0.53,0.83
118,48.44,8.66,17.91,-0.10,0.52,0.82
119,47.63,7.28,17.33,-0.10,0.54,0.82
120,46.61,5.95,17.21,-0.09,0.54,0.81
121,45.39,5.50,17.21,-0.10,0.55,0.82
122,44.75,5.27,16.63,-0.08,0.55,0.82
123,44.09,5.63,16.46,-0.07,0.55,0.82
124,43.77,6.87,16.55,-0.07,0.56,0.82
125,43.28,7.88,16.41,-0.07,0.56,0.82
126,42.66,9.91,16.58,-0.06,0.56,0.82
127,42.29,11.71,16.60,-0.07,0.57,0.82
128,42.18,13.18,16.58,-0.07,0.57,0.81
129,41.50,15.22,16.53,-0.07,0.58,0.81
130,40.90,16.05,16.11,-0.07,0.59,0.80
131,40.90,16.12,15.54,-0.08,0.58,0.80
132,41.16,13.56,14.34,-0.10,0.58,0.81
133,41.85,9.76,12.99,-0.11,0.58,0.80
134,42.40,5.28,12.12,-0.11,0.58,0.80
135,42.93,1.53,10.89,-0.11,0.59,0.80
136,42.92,-0.08,9.94,-0.10,0.59,0.79
137,42.73,-0.50,9.71,-0.09,0.60,0.78
138,42.18,0.64,9.50,-0.09,0.60,0.78
139,41.40,1.51,9.51,-0.09,0.61,0.78
140,40.37,2.75,10.21,-0.10,0.62,0.77
141,39.19,3.97,10.81,-0.10,0.61,0.78
142,38.15,4.92,11.48,-0.10,0.62,0.77
143,37.42,5.54,12.05,-0.10,0.62,0.78
144,37.22,5.95,12.21,-0.11,0.62,0.79
145,37.59,5.59,12.35,-0.12,0.62,0.79
146,37.97,4.69,12.03,-0.11,0.62,0.80
147,38.72,3.66,11.62,-0.11,0.62,0.80
148,39.53,2.69,11.76,-0.12,0.62,0.81
149,40.35,2.37,11.88,-0.12,0.62,0.79
150,40.89,2.00,12.09,-0.12,0.63,0.79
151,41.68,1.82,12.03,-0.10,0.64,0.79
152,42.29,2.40,12.53,-0.10,0.64,0.79
153,42.56,2.63,12.23,-0.10,0.65,0.77
154,42.31,3.05,12.27,-0.09,0.65,0.76
155,41.51,3.08,12.47,-0.10,0.66,0.75
156,40.52,3.69,12.84,-0.10,0.67,0.74
157,39.92,3.92,13.18,-0.10,0.68,0.74
158,39.05,3.92,13.07,-0.09,0.67,0.73
159,38.18,3.57,12.87,-0.10,0.68,0.75
160,37.65,3.56,12.92,-0.10,0.67,0.76
161,37.77,3.51,13.11,-0.10,0.68,0.76
162,37.91,4.05,13.18,-0.10,0.68,0.76
163,38.38,4.15,13.50,-0.09,0.68,0.77
164,38.78,4.09,13.48,-0.10,0.68,0.77
165,39.80,3.92,13.74,-0.09,0.68,0.76
166,40.87,3.89,14.05,-0.09,0.69,0.76
167,42.05,3.79,14.43,-0.08,0.70,0.76
168,42.96,4.06,14.08,-0.08,0.70,0.75
169,43.33,4.81,14.00,-0.07,0.70,0.74
170,43.56,5.62,13.95,-0.06,0.71,0.75
171,43.89,6.24,13.47,-0.06,0.71,0.74
172,44.40,6.27,13.08,-0.07,0.72,0.74
173,44.87,6.37,12.66,-0.08,0.73,0.73
174,45.02,5.71,12.27,-0.08,0.73,0.72
175,44.72,4.00,11.76,-0.09,0.74,0.71
176,44.14,2.02,10.96,-0.10,0.73,0.70
177,43.33,1.80,11.02,-0.08,0.74,0.71
178,43.24,1.30,11.04,-0.08,0.75,0.72
179,43.40,1.88,11.07,-0.07,0.74,0.72
180,43.74,2.93,11.13,-0.08,0.74,0.71
181,43.76,3.27,11.24,-0.08,0.74,0.72
182,44.47,3.11,11.45,-0.09,0.74,0.71
183,44.92,3.04,11.69,-0.09,0.75,0.71
184,45.57,2.85,11.92,-0.09,0.75,0.70
185,45.74,2.41,11.77,-0.08,0.76,0.69
186,45.91,1.91,11.82,-0.09,0.76,0.70
187,46.11,1.94,11.69,-0.07,0.77,0.69
188,46.72,1.94,11.57,-0.08,0.77,0.69
189,47.05,2.67,11.21,-0.08,0.76,0.69
190,47.15,3.33,11.10,-0.07,0.76,0.68
191,47.51,3.66,11.31,-0.07,0.76,0.68
192,48.21,3.54,11.88,-0.08,0.76,0.67
193,49.16,4.24,12.21,-0.07,0.77,0.68
194,49.80,4.61,12.47,-0.07,0.76,0.67
195,50.35,5.44,12.69,-0.07,0.77,0.65
196,50.63,6.27,12.49,-0.06,0.78,0.64
197,51.19,7.39,12.72,-0.06,0.78,0.63
198,51.47,7.66,12.31,-0.06,0.78,0.64
199,51.68,8.43,12.49,-0.06,0.79,0.61
200,51.91,8.23,12.43,-0.07,0.79,0.61
201,52.41,8.73,12.70,-0.07,0.79,0.61
202,52.84,7.89,13.16,-0.08,0.79,0.58
203,52.69,7.66,13.62,-0.08,0.79,0.58
204,52.64,7.07,13.92,-0.07,0.80,0.57
205,52.44,7.31,14.63,-0.07,0.80,0.57
206,52.20,7.89,14.99,-0.07,0.81,0.56
207,51.85,7.73,15.16,-0.06,0.81,0.55
208,51.31,7.73,15.01,-0.06,0.81,0.56
209,51.31,8.02,15.13,-0.06,0.82,0.55
210,51.60,7.62,15.07,-0.07,0.82,0.53
211,51.59,7.40,15.31,-0.05,0.82,0.53
212,51.76,7.83,15.60,-0.06,0.82,0.53
213,52.49,8.32,15.98,-0.05,0.83,0.52
214,53.07,8.23,15.88,-0.06,0.83,0.52
215,53.53,8.26,15.76,-0.06,0.84,0.50
216,54.06,8.17,15.98,-0.05,0.84,0.50
217,54.15,7.92,16.58,-0.06,0.84,0.48
218,54.17,7.98,16.78,-0.05,0.85,0.49
219,54.75,8.17,16.95,-0.05,0.85,0.48
220,54.38,7.54,16.99,-0.05,0.86,0.48
221,53.98,7.08,16.92,-0.05,0.86,0.46
222,53.56,5.83,16.60,-0.05,0.86,0.44
223,53.11,4.53,16.31,-0.05,0.87,0.45
224,52.89,3.83,16.61,-0.05,0.87,0.45
225,52.89,3.76,16.85,-0.04,0.88,0.43
226,52.26,3.80,16.87,-0.04,0.87,0.43
227,51.94,4.05,16.98,-0.03,0.88,0.43
228,51.54,4.75,17.11,-0.03,0.89,0.42
229,51.25,5.57,17.60,-0.03,0.89,0.44
230,51.30,6.44,17.69,-0.02,0.90,0.43
231,51.28,6.63,17.27,-0.03,0.89,0.42
232,51.07,6.72,17.56,-0.03,0.89,0.41
233,51.08,6.82,17.60,-0.03,0.89,0.41
234,50.90,6.84,17.33,-0.03,0.90,0.41
235,51.50,6.73,17.50,-0.03,0.89,0.41
236,52.38,6.63,17.65,-0.02,0.90,0.41
237,53.16,6.53,17.69,-0.03,0.89,0.40
238,53.76,5.97,17.53,-0.03,0.90,0.39
239,54.20,5.80,17.85,-0.03,0.91,0.38
240,54.49,5.08,17.85,-0.04,0.91,0.36
241,54.75,3.51,17.94,-0.04,0.91,0.37
242,54.75,2.26,18.20,-0.04,0.91,0.36
243,54.58,1.24,18.15,-0.03,0.92,0.36
244,54.47,0.67,17.65,-0.02,0.92,0.35
245,54.60,0.61,17.40,-0.01,0.92,0.35
246,54.53,1.21,17.37,-0.01,0.92,0.34
247,54.35,1.94,17.45,-0.01,0.92,0.33
248,54.11,3.37,17.60,-0.01,0.93,0.33
249,53.56,3.54,18.43,-0.01,0.94,0.31
250,53.15,5.01,19.07,-0.01,0.94,0.32
251,52.69,5.47,19.47,0.00,0.94,0.32
252,52.58,6.72,19.79,0.01,0.94,0.30
253,52.35,6.43,19.48,-0.00,0.93,0.31
254,52.15,5.11,19.27,-0.01,0.93,0.31
255,52.76,3.59,19.11,-0.01,0.92,0.31
256,53.63,2.84,18.99,-0.02,0.92,0.30
257,54.43,1.92,19.40,-0.01,0.92,0.31
258,54.90,0.70,19.33,-0.01,0.92,0.30
259,54.60,0.34,19.01,-0.00,0.92,0.30
260,56.93,-0.23,19.08,0.01,0.90,0.33
261,59.08,1.16,19.86,0.01,0.92,0.29
262,59.73,2.98,20.96,0.01,0.92,0.28
263,60.06,4.00,21.18,0.03,0.92,0.27
264,62.23,4.85,21.69,0.01,0.93,0.27
265,64.66,5.21,23.39,0.02,0.93,0.26
266,65.11,5.66,24.12,0.02,0.93,0.24
267,65.63,6.11,23.48,0.04,0.94,0.24
268,65.66,6.82,22.43,0.04,0.94,0.23
269,65.71,7.13,22.43,0.04,0.95,0.22
270,65.24,6.31,22.35,0.03,0.95,0.21
271,66.73,5.73,22.20,0.03,0.93,0.22
272,67.15,6.85,22.79,0.05,0.94,0.20
273,67.56,6.44,22.82,0.03,0.94,0.18
274,68.58,6.26,22.82,0.04,0.94,0.18
275,69.42,6.09,23.37,0.03,0.95,0.17
276,69.86,5.39,23.97,0.03,0.94,0.16
277,70.41,3.86,24.14,0.02,0.95,0.12
278,70.37,4.53,24.64,0.04,0.94,0.13
279,70.78,4.90,24.52,0.05,0.94,0.13
280,71.71,4.70,24.95,0.05,0.93,0.13
281,72.40,5.10,25.28,0.06,0.93,0.12
282,72.82,5.51,25.79,0.06,0.94,0.12
283,73.59,5.85,25.68,0.07,0.94,0.10
284,74.15,6.38,25.76,0.07,0.94,0.09
285,74.17,7.05,26.03,0.09,0.95,0.09
286,73.74,7.54,25.68,0.08,0.95,0.08
287,73.51,7.68,25.40,0.09,0.95,0.06
288,72.85,7.83,24.96,0.09,0.95,0.05
289,72.60,7.88,24.73,0.09,0.95,0.04
290,72.24,5.79,24.24,0.08,0.95,0.04
291,70.66,6.85,24.73,0.11,0.96,-0.00
292,71.28,6.75,24.81,0.10,0.95,0.03
293,70.37,8.34,24.95,0.11,0.95,0.01
294,70.38,8.12,24.21,0.10,0.94,0.01
295,70.20,7.82,24.43,0.09,0.94,0.01
296,67.51,7.40,23.34,0.10,0.93,0.01
297,71.24,5.60,24.34,0.10,0.94,0.00
298,71.92,4.11,24.12,0.10,0.93,0.00
299,71.10,-4.49,20.46,0.07,0.90,0.05
300,71.11,-4.15,22.75,0.11,0.92,-0.04
301,75.44,-2.85,24.09,0.14,0.95,-0.03
302,77.63,6.34,23.37,0.17,0.92,-0.02
303,79.10,7.15,23.27,0.14,0.93,-0.05
304,79.63,8.70,23.76,0.15,0.92,-0.08
305,79.62,10.44,24.29,0.14,0.93,-0.10
306,73.73,8.76,23.63,0.15,0.93,-0.12
307,78.18,10.75,22.78,0.17,0.91,-0.10
308,75.22,8.53,22.44,0.13,0.91,-0.15
309,76.98,11.16,23.04,0.16,0.93,-0.13
310,77.28,10.50,20.93,0.16,0.91,-0.13
311,77.82,12.21,22.27,0.15,0.93,-0.17
312,75.21,17.31,22.76,0.17,0.93,-0.20
313,64.64,28.11,22.02,0.21,0.92,-0.26
314,52.09,29.28,21.36,0.17,0.97,-0.28
315,51.74,25.92,21.54,0.13,1.04,-0.28
316,63.37,27.37,21.88,0.19,0.90,-0.19
317,67.59,27.25,20.93,0.15,0.88,-0.11
318,75.04,22.76,21.65,0.14,0.91,-0.20
319,74.26,22.47,22.20,0.13,0.90,-0.23
320,74.37,21.34,22.99,0.14,0.91,-0.25
321,73.37,20.50,22.31,0.15,0.91,-0.25
322,73.05,19.73,22.20,0.15,0.90,-0.25
323,73.50,19.66,23.13,0.16,0.89,-0.25
324,73.92,18.52,24.61,0.16,0.88,-0.26
325,74.21,17.40,24.99,0.17,0.87,-0.27
326,74.53,17.21,25.37,0.18,0.87,-0.27
327,75.36,17.53,25.94,0.18,0.85,-0.27
328,76.00,18.53,26.50,0.19,0.86,-0.28
329,78.38,20.20,27.40,0.21,0.85,-0.27
330,78.61,20.18,27.82,0.21,0.86,-0.29
331,77.54,22.02,28.21,0.23,0.88,-0.31
332,76.98,22.44,28.53,0.23,0.88,-0.33
333,75.57,22.23,28.53,0.24,0.87,-0.34
334,75.02,21.24,28.31,0.24,0.86,-0.33
335,74.84,20.21,28.35,0.24,0.86,-0.33
336,74.92,20.44,28.18,0.26,0.85,-0.34
337,75.05,22.87,27.80,0.27,0.84,-0.32
338,76.08,24.14,27.80,0.27,0.83,-0.33
339,76.89,25.51,28.26,0.27,0.82,-0.33
340,77.74,26.34,28.87,0.27,0.81,-0.34
341,78.56,26.56,29.73,0.27,0.81,-0.33
342,78.72,26.58,30.49,0.27,0.80,-0.35
343,79.10,25.22,31.40,0.27,0.79,-0.33
344,79.30,26.08,31.74,0.29,0.77,-0.33
345,80.40,25.98,31.98,0.29,0.76,-0.32
346,81.74,26.55,31.94,0.30,0.74,-0.32
347,83.76,28.12,32.05,0.31,0.73,-0.31
348,86.63,28.60,32.76,0.30,0.72,-0.30
349,89.25,30.26,33.53,0.31,0.70,-0.29
350,92.21,32.58,34.55,0.31,0.68,-0.28
351,96.92,32.21,36.17,0.31,0.65,-0.26
352,120.17,36.60,39.15,0.32,0.63,-0.26
353,108.38,32.81,40.96,0.28,0.69,-0.41
354,118.11,37.18,44.35,0.37,0.65,-0.32
355,123.22,33.44,45.42,0.35,0.59,-0.38
356,130.96,32.81,48.29,0.37,0.57,-0.37
357,140.35,28.72,49.44,0.38,0.55,-0.43
358,149.04,27.18,50.64,0.42,0.56,-0.48
359,155.36,29.05,52.20,0.46,0.55,-0.55
360,161.50,22.37,52.67,0.46,0.53,-0.62
361,163.66,20.87,50.56,0.52,0.56,-0.73
362,164.61,18.12,50.75,0.54,0.58,-0.79
363,162.69,15.51,48.38,0.56,0.60,-0.83
364,158.79,14.14,46.20,0.58,0.63,-0.90
365,153.62,14.27,43.19,0.62,0.63,-0.97
366,140.00,17.10,39.13,0.67,0.70,-1.07
367,132.70,17.94,33.11,0.71,0.69,-1.09
368,116.61,22.49,27.56,0.72,0.77,-1.19
369,109.15,26.58,20.29,0.75,0.73,-1.18
370,91.91,19.02,10.06,0.69,0.79,-1.26
371,78.52,8.81,1.76,0.69,0.78,-1.29
372,67.92,9.74,-3.76,0.67,0.79,-1.28
373,54.03,9.22,-8.55,0.64,0.77,-1.27
374,40.55,3.07,-14.92,0.61,0.74,-1.22
375,28.02,-3.42,-18.70,0.56,0.75,-1.20
376,16.69,-7.48,-21.85,0.52,0.73,-1.14
377,8.17,-14.69,-23.74,0.47,0.67,-1.08
378,1.22,-16.32,-25.48,0.46,0.72,-1.00
379,-0.64,-21.22,-25.89,0.42,0.69,-1.01
380,0.52,-23.10,-25.27,0.41,0.61,-0.88
381,-5.77,-28.46,-24.15,0.34,0.64,-0.81
382,-9.15,-21.73,-21.91,0.37,0.59,-0.76
383,-12.41,-21.01,-20.93,0.32,0.62,-0.79
384,-27.19,-19.34,-18.89,0.29,0.66,-0.76
385,-23.54,-18.20,-16.76,0.30,0.64,-0.68
386,-24.72,-20.70,-16.14,0.26,0.63,-0.65
387,-24.23,-20.34,-13.69,0.26,0.62,-0.59
388,-22.90,-17.02,-11.68,0.26,0.61,-0.57
389,-20.14,-14.90,-9.39,0.27,0.60,-0.55
390,-16.02,-12.38,-8.26,0.29,0.60,-0.54
391,-12.27,-11.16,-6.32,0.29,0.60,-0.53
392,-8.14,-7.63,-5.11,0.29,0.59,-0.52
393,-4.50,-5.27,-2.93,0.29,0.60,-0.53
394,-1.54,-3.21,-1.22,0.29,0.60,-0.54
395,1.21,-1.98,0.08,0.30,0.62,-0.55
396,3.97,-2.34,0.56,0.30,0.61,-0.55
397,6.44,-2.93,1.07,0.32,0.61,-0.56
398,9.22,-2.76,1.37,0.33,0.60,-0.57
399,11.11,-2.20,1.04,0.35,0.61,-0.59
400,12.75,0.47,0.41,0.37,0.61,-0.61
