,gyro_x,gyro_y,gyro_z,acce_x,acce_y,acce_z
0,-2.31,-10.84,-20.82,-0.24,-0.41,1.00
1,0.11,-15.04,-21.45,-0.23,-0.41,1.00
2,1.50,-15.10,-22.26,-0.21,-0.40,0.99
3,0.81,-7.91,-23.30,-0.21,-0.39,0.96
4,-0.24,-3.62,-24.55,-0.22,-0.38,0.95
5,-1.11,-7.57,-22.69,-0.24,-0.37,0.94
6,-0.47,-12.40,-22.21,-0.20,-0.37,0.95
7,1.15,-19.91,-23.66,-0.17,-0.37,0.96
8,3.33,-21.71,-28.23,-0.12,-0.38,0.95
9,5.15,-17.11,-35.05,-0.10,-0.37,0.92
10,6.03,-17.31,-40.56,-0.09,-0.38,0.90
11,6.96,-17.02,-47.69,-0.07,-0.37,0.90
12,7.25,-16.23,-55.56,-0.03,-0.36,0.91
13,10.32,-15.45,-68.55,0.02,-0.37,0.94
14,10.78,-19.33,-80.31,0.04,-0.36,0.95
15,12.14,-17.98,-92.61,0.05,-0.37,0.93
16,17.98,-16.75,-105.47,0.06,-0.37,0.93
17,19.86,-11.60,-120.00,0.07,-0.37,0.89
18,16.00,4.24,-150.44,0.12,-0.33,0.88
19,16.05,18.52,-174.49,0.15,-0.43,0.96
20,25.18,25.05,-196.56,0.22,-0.45,0.98
21,22.47,40.76,-234.43,0.29,-0.42,0.98
22,28.40,47.60,-254.49,0.28,-0.51,0.99
23,17.68,65.33,-288.63,0.28,-0.39,0.90
24,15.71,70.70,-306.82,0.15,-0.49,0.93
25,14.78,72.70,-312.76,0.07,-0.40,0.95
26,6.24,78.18,-314.87,0.01,-0.35,0.97
27,10.72,84.66,-309.86,0.01,-0.30,1.01
28,32.14,91.60,-307.36,0.03,-0.29,1.07
29,52.20,104.89,-303.21,0.02,-0.27,1.08
30,76.37,106.66,-295.22,-0.05,-0.27,1.09
31,110.58,92.99,-275.40,-0.15,-0.30,1.06
32,140.47,79.13,-228.55,-0.20,-0.30,1.02
33,163.50,47.74,-210.90,-0.35,-0.32,1.00
34,160.20,25.92,-197.83,-0.36,-0.24,0.95
35,149.59,-1.04,-189.34,-0.35,-0.23,0.99
36,148.18,-26.72,-182.27,-0.26,-0.18,1.05
37,130.23,-29.44,-182.61,-0.25,-0.22,1.08
38,102.23,-46.69,-168.40,-0.15,-0.10,1.17
39,88.26,-69.33,-154.56,-0.23,-0.10,1.28
40,73.82,-79.25,-153.04,-0.20,-0.04,1.28
41,71.56,-80.38,-138.20,-0.08,0.03,1.26
42,66.89,-86.69,-129.05,-0.15,-0.01,1.33
43,44.31,-84.14,-128.63,-0.08,0.05,1.32
44,41.30,-65.60,-118.17,-0.02,-0.04,1.25
45,13.19,-34.44,-102.14,0.11,0.03,1.20
46,19.34,-32.40,-100.15,0.09,-0.06,1.12
47,6.69,-28.27,-92.37,0.11,-0.01,1.12
48,6.26,-29.37,-90.89,0.07,-0.03,1.00
49,-9.27,-19.59,-87.42,0.05,-0.15,0.85
50,-25.69,-10.72,-79.05,0.09,-0.10,0.83
51,-19.97,1.24,-68.12,0.10,-0.23,0.70
52,-36.35,-1.47,-63.50,0.15,-0.14,0.74
53,-25.95,-7.69,-54.93,0.12,-0.19,0.72
54,-24.67,-15.33,-56.24,0.08,-0.29,0.72
55,-10.37,-28.34,-58.50,0.02,-0.38,0.73
56,-10.89,-38.81,-48.02,0.02,-0.33,0.77
57,-19.79,-42.03,-39.39,-0.02,-0.34,0.79
58,-21.28,-29.27,-27.63,-0.00,-0.37,0.80
59,-23.74,-21.76,-16.40,0.01,-0.40,0.82
60,-29.57,-19.05,-8.17,-0.02,-0.42,0.88
61,-30.08,-15.42,1.15,-0.04,-0.46,0.89
62,-32.55,-12.84,11.18,-0.07,-0.47,0.90
63,-32.75,-12.75,19.45,-0.07,-0.49,0.91
64,-35.79,-16.99,26.46,-0.04,-0.53,0.91
65,-25.34,-14.27,35.53,-0.01,-0.56,0.96
66,-30.29,-24.37,31.59,0.09,-0.51,1.08
67,-26.50,-10.96,31.59,0.29,-0.59,0.96
68,-23.15,-12.55,23.42,0.37,-0.61,0.95
69,-17.95,2.23,17.44,0.50,-0.60,0.94
70,-23.21,-4.06,5.21,0.48,-0.59,0.99
71,-15.59,11.65,0.20,0.55,-0.62,1.00
72,-10.76,11.83,-7.68,0.38,-0.59,1.13
73,-10.58,12.84,-12.00,0.22,-0.54,1.18
74,7.30,19.79,-7.57,0.26,-0.54,1.15
75,7.08,1.50,-11.71,0.07,-0.50,1.25
76,5.54,-9.37,-20.06,-0.13,-0.46,1.31
77,21.37,2.72,-5.74,-0.02,-0.48,1.17
78,32.34,0.58,-0.67,-0.07,-0.50,1.17
79,7.02,-34.26,-13.86,-0.28,-0.39,1.29
80,48.11,-1.11,10.27,0.05,-0.52,1.08
81,31.13,-17.10,6.63,-0.04,-0.40,1.21
82,76.64,-5.65,21.16,0.07,-0.48,0.77
83,-1.37,-53.68,-0.43,-0.04,-0.32,1.14
84,-10.61,-33.47,1.08,0.17,-0.37,1.00
85,0.66,-26.43,0.72,0.16,-0.37,0.92
86,-11.66,-21.83,2.11,0.21,-0.33,0.98
87,0.55,-16.61,7.51,0.21,-0.35,0.91
88,13.57,-9.65,13.44,0.24,-0.33,0.89
89,17.83,-6.18,16.53,0.25,-0.30,0.91
90,15.51,-11.56,14.64,0.25,-0.29,0.93
91,6.67,-9.68,12.02,0.27,-0.25,0.95
92,7.01,-5.94,10.96,0.29,-0.27,0.95
93,5.25,-4.50,9.73,0.29,-0.26,0.97
94,4.58,1.56,10.11,0.29,-0.25,0.95
95,8.50,8.34,11.13,0.28,-0.25,0.96
96,11.30,5.33,11.31,0.26,-0.24,0.97
97,11.68,0.14,10.31,0.26,-0.24,0.97
98,10.98,-3.65,9.71,0.26,-0.24,0.97
99,7.28,-6.64,8.64,0.25,-0.22,0.98
100,7.27,-8.27,7.91,0.25,-0.22,1.02
101,7.94,-10.49,7.60,0.24,-0.22,1.03
102,9.10,-7.77,7.89,0.25,-0.22,1.02
103,11.16,-1.62,9.33,0.27,-0.22,1.00
104,12.72,2.64,9.24,0.25,-0.23,0.99
105,12.21,3.04,9.13,0.24,-0.22,0.98
106,10.90,2.32,8.47,0.24,-0.22,0.99
107,9.63,1.15,7.92,0.24,-0.21,0.99
108,7.91,0.23,5.79,0.22,-0.23,0.99
109,6.52,1.34,5.54,0.23,-0.21,0.99
110,5.86,3.44,5.60,0.22,-0.22,1.00
111,6.40,3.74,5.86,0.22,-0.22,1.01
112,6.90,5.30,6.43,0.23,-0.22,1.01
113,7.48,9.89,6.63,0.23,-0.22,1.00
114,3.47,9.95,5.77,0.23,-0.21,1.02
115,2.24,9.36,5.33,0.23,-0.21,0.99
116,1.34,11.10,4.64,0.23,-0.21,0.99
117,1.27,12.70,4.15,0.23,-0.20,0.98
118,0.32,11.60,3.13,0.22,-0.20,0.99
119,2.06,8.75,1.76,0.21,-0.22,0.98
120,3.22,10.18,2.14,0.21,-0.22,0.96
121,4.63,10.17,2.18,0.20,-0.22,0.96
122,0.66,7.39,0.02,0.19,-0.21,0.97
123,-0.11,5.48,0.03,0.20,-0.22,0.95
124,-0.67,4.58,-1.08,0.21,-0.22,0.96
125,-2.60,3.42,-1.82,0.19,-0.23,0.96
126,-0.96,2.96,-1.76,0.18,-0.23,0.96
127,-1.44,0.93,-1.92,0.17,-0.23,0.99
128,-2.03,0.37,-2.38,0.17,-0.24,0.98
129,0.15,4.93,-1.10,0.19,-0.24,0.97
130,-3.56,4.43,-1.60,0.17,-0.24,0.99
131,-1.08,7.82,-1.42,0.18,-0.25,0.97
132,-4.85,4.84,-1.56,0.17,-0.26,0.99
133,-5.28,6.53,-0.76,0.15,-0.25,1.00
134,-7.44,4.73,-1.33,0.14,-0.25,1.02
135,-6.63,8.43,-0.02,0.16,-0.26,1.04
136,-5.69,8.81,0.06,0.15,-0.26,1.05
137,-5.21,11.18,0.70,0.15,-0.25,1.05
138,-4.37,12.90,1.16,0.14,-0.26,1.06
139,-4.56,12.70,1.95,0.13,-0.25,1.04
140,-3.95,11.71,1.85,0.13,-0.25,1.06
141,-2.99,8.79,2.66,0.12,-0.25,1.06
142,-2.78,7.63,1.50,0.13,-0.26,1.02
143,-1.77,6.87,1.24,0.12,-0.27,1.02
144,-2.08,6.38,1.69,0.13,-0.26,1.03
145,-1.63,5.08,0.93,0.11,-0.27,1.02
146,-0.67,4.40,1.57,0.12,-0.26,1.03
147,-0.02,3.01,1.50,0.13,-0.26,1.01
148,-0.03,3.13,1.65,0.13,-0.26,1.02
149,-0.55,3.22,1.86,0.14,-0.26,1.02
150,-1.01,1.04,1.34,0.13,-0.26,1.00
151,-1.54,0.46,1.57,0.15,-0.26,1.00
152,-1.76,-0.20,0.35,0.14,-0.27,1.01
153,-1.76,2.18,0.85,0.15,-0.26,1.04
154,-1.39,2.85,1.19,0.14,-0.26,1.04
155,-0.60,4.21,1.71,0.16,-0.26,1.04
156,-0.66,5.95,2.08,0.16,-0.25,1.04
157,-0.49,7.50,1.59,0.15,-0.25,1.05
158,-0.53,9.36,1.98,0.16,-0.25,1.05
159,-0.75,10.64,1.88,0.14,-0.25,1.05
160,-1.02,11.42,2.02,0.15,-0.25,1.03
161,-1.37,11.77,2.29,0.15,-0.24,1.03
162,-1.51,11.36,1.39,0.15,-0.25,1.03
163,-1.30,9.83,1.30,0.14,-0.25,1.04
164,-0.90,8.05,1.01,0.13,-0.25,1.05
165,-0.58,7.51,0.90,0.14,-0.25,1.03
166,-0.09,7.28,0.78,0.15,-0.25,1.03
167,0.44,7.74,1.10,0.13,-0.26,1.03
168,0.67,9.47,1.48,0.15,-0.26,1.02
169,0.52,10.27,1.27,0.15,-0.26,1.04
170,0.90,10.02,1.01,0.16,-0.26,1.04
171,1.04,9.71,0.29,0.15,-0.26,1.05
172,-0.46,8.96,-0.38,0.13,-0.26,1.05
173,1.18,7.79,-0.78,0.13,-0.26,1.04
174,0.55,8.67,-1.27,0.13,-0.26,1.03
175,-0.06,9.27,-1.40,0.12,-0.26,1.01
176,-0.38,9.71,-1.15,0.12,-0.26,1.01
177,-0.98,10.37,-0.76,0.12,-0.25,1.01
178,-1.02,10.29,-0.78,0.11,-0.25,1.02
179,-1.95,9.57,-0.78,0.10,-0.25,1.02
180,-0.61,8.85,-0.66,0.10,-0.25,1.01
181,-0.20,6.26,-1.04,0.09,-0.26,1.02
182,0.21,4.95,-0.61,0.09,-0.26,1.02
183,0.79,5.33,-0.35,0.09,-0.27,1.02
184,1.57,6.67,0.40,0.10,-0.26,1.01
185,1.92,6.32,-0.49,0.09,-0.26,1.02
186,1.16,4.72,-0.49,0.08,-0.26,1.01
187,0.44,4.34,-0.24,0.08,-0.26,1.01
188,0.38,3.82,0.55,0.10,-0.25,1.00
189,-0.20,3.21,0.55,0.10,-0.25,1.02
190,0.73,3.54,0.64,0.11,-0.25,1.01
191,0.69,4.49,0.67,0.10,-0.25,1.02
192,0.44,4.56,1.08,0.10,-0.25,1.01
193,0.44,5.57,1.62,0.10,-0.26,1.01
194,0.50,5.28,1.34,0.09,-0.25,1.02
195,0.35,5.11,1.56,0.08,-0.25,1.02
196,0.15,4.58,1.80,0.09,-0.25,1.01
197,0.50,5.86,1.92,0.10,-0.26,1.01
198,0.06,5.89,2.09,0.10,-0.25,1.02
199,-0.11,7.10,2.34,0.10,-0.25,1.01
200,-0.29,6.79,2.43,0.09,-0.25,1.01
201,-0.53,6.11,2.63,0.08,-0.25,1.02
202,-0.46,4.96,2.78,0.07,-0.24,1.01
203,-0.20,3.71,2.40,0.06,-0.25,1.02
204,-0.18,3.07,3.04,0.06,-0.24,1.01
205,-0.29,2.63,3.44,0.06,-0.24,1.00
206,-0.34,2.32,3.40,0.06,-0.25,1.00
207,-0.70,0.99,3.86,0.07,-0.25,0.99
208,-0.84,0.44,4.14,0.08,-0.25,1.00
209,-0.52,0.37,4.20,0.08,-0.24,1.00
210,0.34,-0.12,3.74,0.09,-0.25,1.00
211,0.47,0.02,3.89,0.10,-0.25,0.99
212,0.64,-1.76,3.45,0.10,-0.24,1.00
213,0.70,-1.60,3.02,0.11,-0.23,1.00
214,0.34,-0.82,2.79,0.11,-0.24,1.00
215,-0.02,0.64,2.89,0.12,-0.23,1.00
216,-0.44,1.21,3.07,0.12,-0.24,0.99
217,-1.50,0.24,2.95,0.12,-0.24,1.00
218,-2.27,-0.31,2.84,0.11,-0.24,1.01
219,-2.53,0.29,2.69,0.10,-0.24,1.02
220,-2.56,1.45,2.93,0.10,-0.25,1.01
221,-2.85,1.97,3.30,0.10,-0.25,1.01
222,-3.21,0.55,2.52,0.09,-0.25,1.02
223,-2.92,-0.26,2.69,0.10,-0.25,1.03
224,-2.87,0.38,2.81,0.10,-0.25,1.04
225,-2.03,1.33,2.29,0.10,-0.25,1.04
226,-1.79,0.52,2.35,0.09,-0.25,1.04
227,-1.66,0.66,2.87,0.08,-0.25,1.04
228,-1.48,1.73,3.21,0.11,-0.25,1.03
229,-1.69,2.92,3.39,0.10,-0.25,1.03
230,-1.91,3.18,3.80,0.11,-0.25,1.03
231,-1.83,2.63,3.83,0.09,-0.25,1.03
232,-1.69,1.76,3.82,0.10,-0.26,1.03
233,-1.88,1.27,4.00,0.09,-0.25,1.02
234,-1.62,0.79,3.94,0.10,-0.25,1.03
235,-1.69,-0.02,3.59,0.09,-0.26,1.03
236,-2.00,0.43,3.57,0.11,-0.25,1.02
237,-2.43,0.93,3.31,0.11,-0.26,1.01
238,-2.79,1.04,2.96,0.11,-0.26,1.02
239,-2.95,-0.08,1.62,0.09,-0.27,1.02
240,-3.45,-1.27,1.56,0.09,-0.27,1.02
241,-3.65,-2.50,1.50,0.09,-0.27,1.03
242,-3.18,-3.39,1.66,0.09,-0.27,1.04
243,-2.43,-3.19,1.77,0.10,-0.27,1.04
244,-2.20,-2.23,1.88,0.10,-0.27,1.03
245,-1.62,-0.90,1.89,0.10,-0.27,1.04
246,-1.47,-0.46,2.32,0.09,-0.27,1.03
247,-1.56,0.03,3.05,0.09,-0.26,1.04
248,-1.04,1.30,3.45,0.10,-0.27,1.04
249,-1.10,1.88,3.63,0.10,-0.27,1.04
250,-0.92,2.23,3.69,0.11,-0.26,1.04
251,-0.52,2.44,4.02,0.11,-0.26,1.04
252,-0.09,2.52,3.89,0.12,-0.27,1.04
253,0.08,2.21,3.74,0.11,-0.27,1.03
254,0.44,2.43,3.44,0.11,-0.27,1.04
255,1.10,2.79,2.93,0.10,-0.27,1.04
256,1.36,2.35,2.00,0.09,-0.27,1.03
257,0.81,1.59,1.98,0.09,-0.27,1.02
258,0.35,1.04,2.00,0.09,-0.27,1.03
259,0.34,0.81,2.11,0.10,-0.27,1.03
260,0.58,1.16,2.29,0.09,-0.27,1.03
261,0.43,1.50,2.37,0.10,-0.27,1.03
262,0.63,1.59,2.12,0.10,-0.27,1.04
263,0.73,1.92,2.17,0.09,-0.26,1.03
264,0.79,1.80,2.09,0.09,-0.26,1.02
265,0.63,1.28,1.82,0.08,-0.26,1.02
266,0.40,1.69,2.17,0.09,-0.25,1.02
267,0.43,1.47,2.40,0.10,-0.26,1.02
268,0.73,1.39,2.27,0.11,-0.25,1.02
269,1.33,1.21,1.92,0.10,-0.25,1.02
270,1.65,0.76,1.86,0.10,-0.26,1.00
271,1.82,-0.14,1.28,0.10,-0.25,1.01
272,2.06,-0.18,1.47,0.10,-0.26,1.01
273,2.05,-0.03,1.40,0.09,-0.25,1.02
274,2.64,0.95,1.44,0.10,-0.25,1.01
275,2.38,1.19,1.15,0.09,-0.25,1.02
276,1.82,1.13,1.25,0.10,-0.25,1.01
277,1.19,0.63,1.10,0.09,-0.26,1.01
278,0.79,-0.02,1.21,0.09,-0.25,1.00
279,0.32,0.92,1.60,0.10,-0.25,1.00
280,-0.46,1.89,1.57,0.10,-0.25,1.01
281,-0.52,1.97,1.13,0.09,-0.26,1.02
282,-0.58,0.99,1.19,0.09,-0.26,1.01
283,-0.85,-0.14,1.22,0.07,-0.26,1.01
284,-0.70,-0.58,1.74,0.08,-0.26,1.02
285,-0.21,-0.75,1.56,0.09,-0.27,1.03
286,-0.14,-0.03,2.00,0.09,-0.26,1.03
287,0.21,1.28,2.50,0.09,-0.26,1.02
288,0.49,2.21,2.08,0.07,-0.27,1.02
289,0.90,1.56,2.26,0.07,-0.26,1.01
290,0.87,1.07,2.18,0.07,-0.25,1.02
291,1.59,2.12,2.73,0.08,-0.25,1.00
292,1.39,1.51,2.89,0.09,-0.25,0.99
293,0.73,0.70,3.15,0.09,-0.25,1.00
294,1.13,-1.16,2.58,0.10,-0.25,0.99
295,0.69,-2.93,1.94,0.10,-0.25,1.00
296,0.85,-3.47,1.54,0.09,-0.26,0.99
297,-0.09,-2.50,1.66,0.10,-0.25,0.98
298,-0.60,-1.76,2.09,0.10,-0.25,0.99
299,-0.79,-0.95,2.43,0.10,-0.25,0.99
300,-1.18,-0.89,2.52,0.09,-0.25,1.00
301,-1.16,0.58,2.90,0.10,-0.25,1.00
302,-1.21,1.51,3.11,0.10,-0.25,1.02
303,-1.08,1.76,2.96,0.11,-0.24,1.01
304,-1.24,2.20,2.82,0.11,-0.25,1.01
305,-0.55,2.31,2.78,0.12,-0.25,1.01
306,-0.72,3.22,2.29,0.12,-0.25,1.01
307,-0.75,3.28,2.05,0.11,-0.25,1.01
308,-0.40,2.44,1.66,0.10,-0.25,1.00
309,-0.44,0.92,1.62,0.09,-0.25,1.00
310,-1.05,0.09,1.73,0.08,-0.25,0.99
311,-0.85,-1.13,1.85,0.08,-0.26,1.00
312,-1.10,-2.21,1.47,0.08,-0.26,0.99
313,-1.57,-2.99,1.66,0.10,-0.26,0.99
314,-2.11,-3.22,1.54,0.10,-0.26,0.99
315,-2.90,-2.87,1.40,0.11,-0.26,0.99
316,-2.89,-2.29,0.96,0.12,-0.26,1.01
317,-2.73,-1.57,0.93,0.12,-0.26,1.01
318,-2.66,-1.54,0.44,0.11,-0.26,1.03
319,-2.69,-2.53,0.09,0.09,-0.26,1.03
320,-2.32,-1.77,0.15,0.09,-0.27,1.03
321,-1.79,-1.62,0.18,0.10,-0.26,1.04
322,-1.94,-1.91,0.03,0.10,-0.26,1.03
323,-1.88,-2.11,0.31,0.10,-0.26,1.03
324,-2.00,-2.18,0.21,0.10,-0.26,1.03
325,-1.44,-1.86,0.49,0.09,-0.27,1.03
326,-1.10,-1.36,0.93,0.08,-0.27,1.03
327,-0.69,-0.29,1.40,0.08,-0.28,1.02
328,-0.41,0.55,2.11,0.08,-0.27,1.02
329,-0.32,0.92,2.38,0.09,-0.27,1.03
330,-0.29,1.34,2.47,0.09,-0.27,1.02
331,-0.63,1.47,2.78,0.09,-0.26,1.01
332,-1.08,0.40,2.53,0.09,-0.27,1.01
333,-1.40,-1.48,2.03,0.07,-0.27,1.01
334,-2.14,-2.46,2.00,0.09,-0.27,1.01
335,-2.40,-2.52,1.82,0.10,-0.27,1.01
336,-2.63,-1.42,1.97,0.11,-0.26,1.02
337,-2.56,-1.19,1.98,0.11,-0.26,1.02
338,-2.53,-1.07,1.65,0.11,-0.26,1.02
339,-2.41,-0.49,1.56,0.11,-0.27,1.04
340,-1.83,0.52,1.73,0.11,-0.27,1.05
341,-1.39,0.49,1.68,0.11,-0.26,1.03
342,-1.27,0.35,1.34,0.11,-0.26,1.04
343,-1.31,0.58,1.33,0.10,-0.27,1.01
344,-1.30,0.27,1.25,0.10,-0.26,1.02
345,-1.11,-0.47,0.09,0.09,-0.27,1.00
346,-1.36,-1.69,0.23,0.10,-0.27,1.00
347,-1.39,-2.06,0.27,0.10,-0.27,1.03
348,-1.04,-0.81,0.26,0.11,-0.27,1.03
349,-1.04,0.76,0.85,0.10,-0.28,1.02
350,-1.22,1.85,0.85,0.11,-0.27,1.02
351,-1.21,2.08,1.19,0.10,-0.28,1.02
352,-1.30,2.09,1.21,0.09,-0.27,1.02
353,-1.25,1.82,1.45,0.10,-0.27,1.03
354,-1.25,1.76,1.31,0.10,-0.27,1.03
355,-1.24,1.66,1.04,0.11,-0.28,1.03
356,-0.87,0.96,0.79,0.10,-0.27,1.04
357,-0.50,-0.23,0.32,0.09,-0.27,1.02
358,-0.35,-0.21,0.58,0.09,-0.27,1.02
359,-0.14,-0.27,0.40,0.09,-0.28,1.02
360,-0.11,0.08,0.60,0.10,-0.27,1.02
361,-0.12,0.92,0.55,0.10,-0.28,1.02
362,-0.43,0.99,0.78,0.09,-0.27,1.00
363,-0.64,0.49,0.69,0.09,-0.28,1.01
364,-0.96,-0.50,0.89,0.07,-0.28,1.02
365,-1.27,-0.85,1.24,0.08,-0.28,1.01
366,-1.15,0.14,1.65,0.09,-0.27,1.03
367,-0.49,2.14,1.60,0.10,-0.27,1.03
368,-0.23,3.05,1.97,0.09,-0.27,1.03
369,-0.37,3.48,2.24,0.08,-0.27,1.03
370,-0.31,3.34,2.53,0.08,-0.27,1.03
371,-0.21,3.04,2.56,0.08,-0.28,1.04
372,0.09,2.64,2.49,0.11,-0.27,1.04
373,0.49,2.84,1.89,0.12,-0.27,1.03
374,0.63,2.14,1.66,0.10,-0.27,1.03
375,1.10,1.25,1.18,0.09,-0.28,1.03
376,1.08,0.73,1.10,0.09,-0.27,1.01
377,0.96,0.18,0.87,0.08,-0.27,1.02
378,0.66,0.29,1.19,0.09,-0.28,1.01
379,0.43,0.21,1.57,0.09,-0.27,1.01
380,0.43,1.04,1.79,0.08,-0.27,1.01
381,0.40,1.79,2.05,0.08,-0.27,1.00
382,0.27,2.41,2.31,0.08,-0.27,1.01
383,-0.05,2.15,2.56,0.09,-0.27,1.01
384,-0.37,2.41,2.69,0.09,-0.27,1.01
385,-0.50,2.31,2.60,0.09,-0.27,1.01
386,-0.66,2.08,2.34,0.10,-0.27,1.00
387,-0.84,2.06,2.09,0.09,-0.27,0.99
388,-0.78,1.40,2.15,0.09,-0.27,1.00
389,-0.44,0.15,1.01,0.09,-0.27,1.02
390,-0.32,-0.15,0.64,0.09,-0.27,1.01
391,-0.69,-0.56,0.44,0.09,-0.27,1.00
392,-0.78,-1.36,-0.14,0.09,-0.28,1.01
393,-0.53,-2.11,-0.31,0.08,-0.27,1.01
394,-0.49,-3.19,-0.15,0.08,-0.28,1.02
395,-0.37,-2.98,0.21,0.08,-0.27,1.02
396,-0.11,-2.23,0.67,0.08,-0.27,1.03
397,0.09,-1.92,1.11,0.08,-0.27,1.02
398,0.37,-0.89,1.60,0.09,-0.27,1.03
399,0.40,0.60,1.69,0.09,-0.27,1.02
400,0.43,2.14,1.63,0.10,-0.27,1.03
401,0.43,2.79,1.86,0.10,-0.28,1.02
402,0.32,3.25,1.92,0.09,-0.28,1.02
403,0.32,1.69,0.93,0.06,-0.28,1.02
404,-0.14,0.53,1.44,0.06,-0.27,1.02
405,-0.24,-0.34,1.77,0.08,-0.27,1.02
406,0.02,0.06,1.83,0.09,-0.27,1.03
407,-0.05,0.00,1.88,0.09,-0.28,1.02
408,0.55,0.12,1.94,0.10,-0.28,1.03
409,1.19,0.84,1.89,0.09,-0.27,1.02
410,1.11,1.24,2.15,0.09,-0.28,1.01
411,1.02,1.98,2.23,0.08,-0.27,1.01
412,0.78,2.06,2.38,0.09,-0.27,1.01
413,0.73,1.88,2.49,0.09,-0.27,1.00
414,0.76,1.27,2.55,0.09,-0.27,0.99
415,0.46,0.53,2.44,0.10,-0.28,0.99
416,0.38,-0.29,2.21,0.09,-0.27,1.01
417,0.55,-0.55,1.68,0.10,-0.27,1.00
418,0.29,-0.78,1.37,0.09,-0.27,1.00
419,0.18,-1.15,1.24,0.08,-0.27,1.00
420,-0.20,-1.80,1.39,0.09,-0.27,1.00
421,-0.52,-1.05,1.56,0.10,-0.27,1.01
422,-0.43,-0.08,1.69,0.10,-0.27,1.01
423,-0.61,1.01,1.91,0.11,-0.27,1.02
424,-0.67,1.50,1.28,0.12,-0.26,1.02
425,-0.89,0.75,1.04,0.10,-0.27,1.01
426,-0.81,-0.15,0.78,0.10,-0.27,1.01
427,-0.58,-1.02,0.49,0.09,-0.27,1.01
428,-0.75,-0.99,0.23,0.09,-0.27,1.01
429,-0.75,-0.61,0.41,0.10,-0.27,1.01
430,-0.49,0.47,0.37,0.10,-0.27,1.01
431,-0.61,0.82,0.37,0.10,-0.27,1.01
432,-0.43,1.05,0.85,0.09,-0.27,1.01
433,-0.46,1.40,1.02,0.08,-0.27,1.01
434,-0.41,1.42,1.31,0.08,-0.27,1.02
435,-0.21,0.31,1.13,0.08,-0.27,1.02
436,-0.23,-0.41,1.21,0.08,-0.27,1.02
437,-0.38,0.44,1.48,0.09,-0.28,1.02
438,-0.37,1.02,1.74,0.09,-0.27,1.02
439,-0.55,1.88,2.05,0.10,-0.27,1.02
440,-0.63,2.41,2.06,0.10,-0.27,1.03
441,-0.31,3.19,1.89,0.11,-0.28,1.03
442,-0.43,2.96,1.85,0.10,-0.28,1.04
443,-0.31,3.15,1.77,0.10,-0.28,1.02
444,-0.82,3.28,1.74,0.09,-0.27,1.02
445,-0.98,3.36,1.59,0.11,-0.28,1.01
446,-0.47,3.79,1.59,0.10,-0.27,1.03
447,-0.37,3.73,1.21,0.11,-0.27,1.02
448,-0.15,3.07,1.15,0.11,-0.27,1.02
449,-0.15,3.05,0.93,0.10,-0.27,1.01
450,-0.11,3.01,0.75,0.10,-0.27,1.01
451,0.11,3.01,0.70,0.10,-0.27,1.00
452,0.38,1.95,-0.40,0.07,-0.27,1.01
453,0.23,0.47,-0.40,0.08,-0.27,1.00
454,-0.11,-0.82,-0.52,0.08,-0.27,1.02
455,-0.41,-0.89,-0.20,0.08,-0.28,1.02
456,-0.81,0.03,-0.17,0.10,-0.28,1.02
457,-0.43,0.73,-0.29,0.10,-0.27,1.03
458,-0.20,1.88,-0.23,0.11,-0.27,1.04
459,-0.70,2.99,-0.20,0.10,-0.27,1.03
460,-0.66,3.57,0.11,0.10,-0.27,1.03
461,-0.73,4.18,0.09,0.09,-0.28,1.03
462,-0.64,4.37,0.26,0.09,-0.28,1.02
463,-0.50,3.74,-0.03,0.08,-0.27,1.02
464,-0.08,2.49,-0.29,0.07,-0.28,1.03
465,0.23,0.46,-0.38,0.06,-0.28,1.02
466,0.35,-0.27,-0.58,0.06,-0.28,1.02
467,0.50,-0.40,-0.40,0.06,-0.28,1.02
468,0.75,-0.18,-0.23,0.07,-0.28,1.02
469,1.02,-0.11,-0.18,0.06,-0.28,1.02
470,1.04,1.13,0.15,0.08,-0.28,1.02
471,0.79,2.31,0.53,0.08,-0.28,1.02
472,0.24,2.99,0.72,0.08,-0.28,1.02
473,0.32,2.11,0.60,0.07,-0.28,1.02
474,0.12,1.45,0.93,0.08,-0.29,1.02
475,0.24,0.85,0.85,0.08,-0.28,1.01
476,0.41,0.38,0.76,0.08,-0.28,1.03
477,0.81,0.70,0.76,0.08,-0.27,1.02
478,1.05,1.95,0.95,0.08,-0.28,1.01
479,1.22,2.35,1.16,0.09,-0.27,1.01
480,1.18,2.17,0.99,0.08,-0.27,1.02
481,1.51,2.08,0.96,0.07,-0.27,1.01
482,1.56,1.69,1.16,0.07,-0.27,1.00
483,1.56,1.25,0.81,0.06,-0.27,1.00
484,1.19,0.96,1.05,0.06,-0.27,0.99
485,0.76,0.99,1.16,0.07,-0.27,0.99
486,0.40,0.50,1.18,0.08,-0.27,1.00
487,0.24,0.11,1.02,0.08,-0.27,0.99
488,0.17,0.18,0.85,0.07,-0.27,1.01
489,-0.06,-0.26,1.08,0.07,-0.27,1.00
490,0.08,-0.24,1.10,0.07,-0.27,1.01
491,0.12,-0.58,1.21,0.08,-0.27,1.01
492,0.09,0.06,1.37,0.08,-0.26,1.02
493,0.15,0.81,1.34,0.07,-0.27,1.00
494,0.15,0.89,1.60,0.08,-0.26,1.01
495,0.09,0.93,1.48,0.07,-0.27,1.00
496,0.03,0.60,1.59,0.07,-0.26,0.99
497,0.50,-0.78,1.13,0.06,-0.27,1.00
498,0.34,-0.90,1.47,0.07,-0.27,0.99
499,0.09,-1.56,1.07,0.07,-0.26,0.99
500,-0.05,-2.20,1.21,0.07,-0.26,0.98
501,-0.11,-2.34,1.21,0.07,-0.26,0.99
502,-0.03,-2.38,1.11,0.08,-0.27,1.00
503,-0.41,-2.14,1.30,0.09,-0.27,0.99
504,-0.98,-1.51,1.16,0.09,-0.27,1.00
505,-0.64,-0.63,1.85,0.08,-0.27,0.99
506,-0.82,-0.81,2.52,0.08,-0.26,1.00
507,-1.07,-1.27,1.27,0.06,-0.27,1.00
508,-1.51,-1.56,1.89,0.07,-0.27,0.99
509,-1.85,-1.98,1.91,0.07,-0.27,1.00
510,-1.68,-2.20,1.82,0.07,-0.27,1.02
511,-1.22,-2.56,1.74,0.08,-0.27,1.03
512,-0.75,-1.63,1.53,0.08,-0.28,1.05
513,-1.47,-0.96,2.00,0.06,-0.28,1.05
514,-1.62,-0.27,2.61,0.05,-0.28,1.07
515,-1.66,1.45,3.44,0.05,-0.30,1.10
516,-2.50,2.15,5.30,0.05,-0.29,1.14
517,0.38,3.39,5.63,0.05,-0.31,1.20
518,4.99,4.05,4.78,0.05,-0.34,1.25
519,7.30,6.90,6.11,0.04,-0.35,1.26
520,7.28,10.09,8.27,0.01,-0.38,1.31
521,7.82,12.99,10.73,0.01,-0.39,1.36
522,8.50,19.62,13.63,0.04,-0.41,1.40
523,10.64,30.96,16.18,0.07,-0.42,1.45
524,12.82,39.19,16.67,0.08,-0.43,1.51
525,17.56,40.79,10.69,0.09,-0.48,1.51
526,23.69,41.98,14.27,0.14,-0.48,1.55
527,28.60,42.63,11.97,0.18,-0.49,1.57
528,37.22,37.69,10.31,0.19,-0.51,1.65
529,47.77,32.75,4.90,0.12,-0.52,1.71
530,45.42,16.40,-1.60,0.07,-0.53,1.76
531,57.74,13.77,-3.21,0.06,-0.58,1.75
532,56.31,22.81,-0.24,0.09,-0.57,1.79
533,69.08,26.89,0.02,0.01,-0.62,1.84
534,79.98,22.02,1.77,-0.03,-0.63,1.92
535,85.79,17.02,5.79,-0.11,-0.63,1.99
536,100.61,14.53,13.47,-0.03,-0.66,1.95
537,109.13,16.11,19.50,0.03,-0.68,1.88
538,129.66,11.57,17.92,0.05,-0.70,1.77
539,131.50,28.69,15.97,0.14,-0.71,1.86
540,144.29,-21.25,2.82,-0.01,-0.70,2.11
541,164.93,-6.50,0.31,0.25,-0.73,2.21
542,195.74,-16.81,-9.37,0.13,-0.76,2.29
543,211.57,-35.91,-20.66,0.11,-0.76,2.32
544,219.08,-42.03,-38.89,0.10,-0.84,2.14
545,230.31,-37.59,-38.05,0.05,-0.80,2.01
546,240.31,-33.63,-36.20,0.00,-0.80,2.01
547,249.83,-41.91,-39.40,-0.06,-0.83,1.92
548,264.67,-36.63,-35.10,-0.03,-0.82,1.77
549,268.12,-29.88,-29.66,-0.01,-0.79,1.58
550,277.97,-24.63,-16.55,0.00,-0.73,1.45
551,275.89,-14.14,-6.67,0.09,-0.61,1.36
552,287.56,-15.18,-2.05,0.12,-0.66,1.33
553,289.71,-17.21,-2.66,0.18,-0.58,1.25
554,284.73,-12.26,-5.50,0.26,-0.51,1.24
555,286.90,-5.37,-9.42,0.30,-0.48,1.25
556,297.66,-2.93,-13.15,0.31,-0.45,1.23
557,313.13,-11.08,-17.83,0.29,-0.44,1.17
